Gesture Name,Gesture Number,Sample Number,Acceleration_x,Acceleration_y,Acceleration_z,Rotation_i,Rotation_j,Rotation_k,Rotation_real
zero,0,1,6.878906,-6.820312,-7.261719,1.0,0.0,-2.775557561562892e-17,0.0
zero,0,1,5.609375,-7.878906,-8.140625,0.9996958460294086,0.0230214620843143,0.0033772638647703,-0.0081744604612992
zero,0,1,4.105469,-9.019531,-9.320312,0.9987912694976572,0.0459728166699657,0.0079725083808062,-0.0154576587103577
zero,0,1,1.410156,-10.328125,-12.101562,0.9970480878060544,0.0720742166237338,0.0138536195485058,-0.0225498364909998
zero,0,1,0.351562,-10.816406,-13.828125,0.9946885103905596,0.0970422640286058,0.0195922232420483,-0.0281728784054081
zero,0,1,-0.507812,-11.367188,-15.273438,0.9914844302596442,0.1235371380162469,0.0253378510972541,-0.0324837403209178
zero,0,1,-1.996094,-12.183594,-17.542969,0.9875550228438724,0.1502988714886755,0.0302834371033555,-0.0350462483338333
zero,0,1,-1.996094,-12.183594,-17.542969,0.9827455805181644,0.1782133172302269,0.0345839739564321,-0.0354271968859391
zero,0,1,-2.839844,-12.59375,-18.148438,0.977570694639104,0.2044318628010953,0.0380129286162014,-0.0334390148257016
zero,0,1,-4.765625,-11.929688,-18.144531,0.9579986484921892,0.2820501610386795,0.0507526259900021,-0.0105103330257707
zero,0,1,-5.835938,-11.492188,-18.269531,0.9506500438107222,0.3051336771261672,0.0560998144407651,0.0032778202890909
zero,0,1,-7.355469,-10.632812,-18.730469,0.9427066614941734,0.3270745670332357,0.0621074717254024,0.0216573297155909
zero,0,1,-11.183594,-8.554688,-18.378906,0.935344832507258,0.3446712122933564,0.0676340048506704,0.0419218452129355
zero,0,1,-12.429688,-8.898438,-17.410156,0.9185201813280692,0.3749887611951434,0.0799315618663248,0.0965145112819421
zero,0,1,-15.84375,-12.136719,-13.476562,0.9097365446982704,0.3858122970080146,0.0865769753365976,0.1266203698439466
zero,0,1,-17.851562,-12.472656,-10.726562,0.8797681751994921,0.4039828035436136,0.1144663994844931,0.2229423596723022
zero,0,1,-18.699219,-12.101562,-8.851562,0.8691234933941057,0.4058538297109065,0.1270833117232375,0.2525011960781
zero,0,1,-20.109375,-11.324219,-5.550781,0.8583940586136392,0.4060835854970321,0.140992738890815,0.2799585849848961
zero,0,1,-19.875,-9.46875,-1.675781,0.8475938221547032,0.4045123751731809,0.1562470303536046,0.3058452492398938
zero,0,1,-19.636719,-8.484375,1.011719,0.8377577853633139,0.401022633375658,0.1715955090489475,0.3284778864061334
zero,0,1,-20.300781,-6.75,5.800781,0.8278666280059742,0.3946961738872196,0.18853539087786,0.3511498012805076
zero,0,1,-20.582031,-5.949219,7.789062,0.8191126341144213,0.3860035612720271,0.2049091805976569,0.3715749870836889
zero,0,1,-20.582031,-5.949219,7.789062,0.8114813885002414,0.3749544614298958,0.2204635332921253,0.3902600907854772
zero,0,1,-17.566406,-5.425781,15.140625,0.795687026482947,0.3287869004190786,0.2608182848953727,0.4367552544203413
zero,0,1,-14.722656,-4.972656,17.890625,0.7929612984592527,0.3091913032177797,0.2730138726696088,0.448415591265792
zero,0,1,-12.289062,-5.535156,20.074219,0.7916547268446309,0.2891642449579764,0.2840704747867608,0.4571332390636899
zero,0,1,-10.792969,-6.136719,21.265625,0.7915824737508176,0.2659097575092152,0.2953749014317793,0.4641582227173116
zero,0,1,-9.269531,-6.414062,22.132812,0.7928536198895781,0.2429940309578455,0.3050224316405387,0.4682930220950799
zero,0,1,-7.671875,-6.828125,23.199219,0.7956067253677558,0.2184274783471318,0.313652910887676,0.4700225811003096
zero,0,1,-4.535156,-8.558594,24.347656,0.7997789481280203,0.193767778079483,0.3207830011680377,0.4689413059978875
zero,0,1,-2.71875,-9.238281,24.554688,0.8055056132627378,0.1681062179460878,0.3269472175628204,0.4647650195722702
zero,0,1,4.410156,-11.644531,23.25,0.8283383395946846,0.0964150295279523,0.3398047585355612,0.434847632298066
zero,0,1,4.410156,-11.644531,23.25,0.8471116910124579,0.0517648795212641,0.3466935557443102,0.3994067583348207
zero,0,1,6.644531,-12.167969,21.140625,0.8570519238014775,0.0307182782491064,0.3491741068892419,0.3776186308535332
zero,0,1,7.808594,-11.773438,19.015625,0.866888506584708,0.0116504054468273,0.3500322440176042,0.3547478165574239
zero,0,1,8.222656,-11.765625,17.921875,0.8768279731945228,-0.0057388834042827,0.3487056152983548,0.3309745677544621
zero,0,1,8.601562,-11.820312,16.640625,0.8864552334188521,-0.0206397247311289,0.3452380408096157,0.3075415680607898
zero,0,1,9.167969,-11.980469,14.898438,0.8968881383776464,-0.0345747036167133,0.3392782586142074,0.2815786219495495
zero,0,1,10.835938,-11.570312,9.824219,0.9070650581270828,-0.0460289710721557,0.3313569020160505,0.2555717465473757
zero,0,1,12.429688,-10.046875,3.054688,0.9335852321339532,-0.0641566701229641,0.3023896133572155,0.1812817082714074
zero,0,1,11.539062,-9.265625,1.109375,0.9466532722039136,-0.0635271177571793,0.2856376325610339,0.1349927049881455
zero,0,1,11.539062,-9.265625,1.109375,0.951525710829676,-0.0598864013191881,0.2791477719395877,0.1144070014827808
zero,0,1,7.925781,-8.234375,-1.222656,0.9557944852640258,-0.0542262641240918,0.2732351846121311,0.0941219852531544
zero,0,1,6.582031,-8.203125,-2.132812,0.9593789106448534,-0.0467442260443245,0.267891856214944,0.075106834010783
zero,0,1,4.183594,-7.726562,-3.761719,0.9623962282016266,-0.0379196789248934,0.2626970046255037,0.0578435964848635
zero,0,1,3.214844,-7.792969,-4.589844,0.9649902848669898,-0.028010624120203,0.2572944203717577,0.0425292404621093
zero,0,1,1.992188,-7.523438,-6.011719,0.9696287895003508,-0.003428551237972,0.2440934526112718,0.0150546338647532
zero,0,1,2.007812,-6.855469,-7.15625,0.9715377045967784,0.0105585501007063,0.236620160143919,0.0037289918289075
zero,0,1,1.769531,-6.976562,-7.375,0.9731322692944274,0.0257346175366999,0.2287213326888469,-0.0061536892313319
zero,0,1,1.394531,-6.988281,-7.382812,0.9750715125628332,0.0567114044857066,0.2135330470788327,-0.0205669588154395
zero,0,1,0.230469,-6.238281,-7.601562,0.9756891186538597,0.088395052894448,0.1984643613300647,-0.028791589850022
zero,0,1,-0.078125,-5.628906,-7.589844,0.9755170834151136,0.1049376984868006,0.1908370471357483,-0.0305895544601681
zero,0,1,-0.542969,-5.898438,-7.527344,0.9740977131035422,0.1392364353966397,0.1756879671713462,-0.029674881224472
zero,0,1,-1.140625,-6.253906,-7.21875,0.9712286375007424,0.1722552386695209,0.1627214597548009,-0.0237653736479051
zero,0,1,-1.175781,-6.1875,-7.203125,0.9692000145700294,0.1883376423094085,0.1574902381465807,-0.0194187830545978
zero,0,1,-1.121094,-5.921875,-7.164062,0.966676486791228,0.2047711051874397,0.1529913809146544,-0.0141067973371198
zero,0,1,-1.460938,-5.796875,-7.035156,0.9635892383802328,0.2216196976559629,0.1493866950348663,-0.0080065370318327
zero,0,1,-1.949219,-5.542969,-6.761719,0.9603475259149272,0.2369032413401731,0.1469913914223237,-0.0017362486362169
zero,0,1,-3.441406,-5.199219,-5.910156,0.9571239944645386,0.2504247242892579,0.1455390403238144,0.0044163816092125
zero,0,1,-4.035156,-4.984375,-5.496094,0.9535089114780588,0.2643713588116785,0.1442167445694717,0.0114048655308873
zero,0,1,-4.625,-4.765625,-5.246094,0.9498366625527398,0.2775678013603991,0.1428609590924816,0.0188991133602362
zero,0,1,-5.601562,-4.230469,-4.496094,0.9463121736584064,0.2895864720439211,0.1411359560244228,0.0267130513444172
zero,0,1,-5.722656,-3.695312,-3.914062,0.9398503967946148,0.3102339920712305,0.1362687587587787,0.0432079529125677
zero,0,1,-5.507812,-3.59375,-3.464844,0.9369209408392468,0.3189417825391731,0.1333901967409023,0.0515979203171877
zero,0,1,-5.261719,-3.433594,-2.601562,0.9343233407947468,0.3262290286695496,0.1308659239469757,0.0590645887903237
zero,0,1,-5.285156,-3.039062,-2.21875,0.9318938920099152,0.3326250195796418,0.1287877337237327,0.0659400487303468
zero,0,1,-5.195312,-2.601562,-1.644531,0.9275698520495904,0.3428745783464136,0.1268985711419071,0.0771229261284354
zero,0,1,-5.238281,-2.078125,-1.109375,0.9258427797617846,0.3465773667690216,0.1269080536139366,0.0812011202776448
zero,0,1,-5.40625,-1.398438,-0.449219,0.9244329277727475,0.3494030897097079,0.1272835526609459,0.0844993501325535
zero,0,1,-5.335938,-0.929688,-0.289062,0.9232524796190812,0.3516098222524091,0.1278116464094445,0.0874046612884818
zero,0,1,-4.1875,0.9375,0.390625,0.9212327307073044,0.3546474413073163,0.1287555980604426,0.0947493758070974
zero,0,1,-3.765625,1.136719,0.644531,0.9209850109938064,0.3547644417494734,0.1284898443305289,0.0970523585434126
zero,0,2,-13.71875,-4.570312,-8.429688,1.0,1.3877787807814457e-17,0.0,2.775557561562892e-17
zero,0,2,-14.914062,-4.777344,-6.394531,0.999607622746583,0.007084348053639,0.0017479403374106,0.0270436178082176
zero,0,2,-14.914062,-4.777344,-6.394531,0.9983782712745732,0.0123877553311367,0.0024320026027916,0.0555108667558959
zero,0,2,-17.441406,-6.132812,-1.730469,0.9963201789345226,0.0156948000740815,0.0019902891554924,0.0842366490762378
zero,0,2,-18.039062,-6.359375,-0.40625,0.9935766257729036,0.0170787648871446,0.0006196626614747,0.1118634011902346
zero,0,2,-17.96875,-5.828125,0.453125,0.9898639476660236,0.0167337361082053,-0.0018133027316554,0.1410179390010359
zero,0,2,-17.351562,-5.121094,3.027344,0.9853950794596804,0.0142282750239358,-0.0055992764774389,0.1695958185493461
zero,0,2,-17.351562,-5.121094,3.027344,0.9802775922800626,0.0088847546981518,-0.0103133928772708,0.1971561237570777
zero,0,2,-16.082031,-5.828125,7.949219,0.9693260037356732,-0.0099470353353282,-0.0196635127735618,0.2447886869021339
zero,0,2,-12.476562,-5.332031,13.011719,0.963714700242322,-0.0228661715189148,-0.0229499107113429,0.2649611600504131
zero,0,2,-10.03125,-5.886719,15.726562,0.9476192693038952,-0.0705685438804027,-0.0204128386411565,0.3108393750430622
zero,0,2,-8.476562,-4.320312,17.9375,0.937574575503858,-0.108373590668674,-0.011218312027761,0.3302775040622458
zero,0,2,-7.976562,-4.089844,18.691406,0.9327532562294985,-0.1287682846834296,-0.0070528845525882,0.3366605837820086
zero,0,2,-7.339844,-4.4375,19.472656,0.9281340761103656,-0.1500340271632213,-0.0041927811515244,0.3406454873356745
zero,0,2,-4.007812,-6.136719,20.054688,0.9236931350911728,-0.1723460059471885,-0.0024366391998551,0.3421723384625091
zero,0,2,2.445312,-9.265625,19.257812,0.9106854274362748,-0.2492535473782844,-0.0005745187551203,0.3294304043386876
zero,0,2,3.777344,-9.585938,19.125,0.9070719405817464,-0.2733637487469604,0.0005839044768251,0.320144365147718
zero,0,2,4.828125,-10.039062,18.648438,0.903378198521012,-0.2987572644289615,0.0027794772984511,0.3076429779692716
zero,0,2,5.800781,-9.910156,16.714844,0.8994493722354798,-0.3256862136490843,0.0061265268414567,0.2913447831916418
zero,0,2,5.984375,-9.371094,15.714844,0.8923495968003923,-0.3715153817767389,0.013886449119292,0.2559212471138703
zero,0,2,6.175781,-9.53125,14.671875,0.8887210841485121,-0.393106356543794,0.0180439832692829,0.2351949015232568
zero,0,2,6.421875,-9.53125,13.4375,0.8851204489159356,-0.412710471859792,0.0220221034827781,0.2138852128743693
zero,0,2,6.460938,-7.414062,6.804688,0.8811791342096646,-0.431855114978139,0.0255558566348556,0.1907128503598614
zero,0,2,11.058594,-10.65625,9.460938,0.8715029018087953,-0.474756988229306,0.0345233913692614,0.1178839671653974
zero,0,2,6.414062,-6.703125,6.863281,0.8678149325085605,-0.4869771696430051,0.0352303489336552,0.0922458761986862
zero,0,2,4.4375,-6.46875,4.328125,0.8640835472269676,-0.4977615430575496,0.0336040231909703,0.0668119696611982
zero,0,2,6.058594,-5.171875,2.664062,0.861100548090887,-0.5057743368322839,0.0317076796022784,0.0411435211628358
zero,0,2,6.542969,-4.335938,1.285156,0.8587979557649467,-0.5111274722279532,0.0305944131444515,0.0166961130853383
zero,0,2,5.378906,-9.5,3.304688,0.856833891099682,-0.5146963589334776,0.029717847131348,-0.006339615562261
zero,0,2,2.316406,-11.46875,3.035156,0.8550131029748228,-0.5169922439516748,0.0273613989888285,-0.0303803765702653
zero,0,2,5.992188,-8.578125,-3.246094,0.8550390187084254,-0.5081072186304721,0.0164176819185918,-0.1023024466088595
zero,0,2,7.03125,-8.292969,-4.574219,0.8559756333359854,-0.5022271277594892,0.0158218892622883,-0.1217509552228827
zero,0,2,3.890625,-7.929688,-5.757812,0.8567320058668854,-0.4962078679524002,0.0168113609998307,-0.1396617343683291
zero,0,2,2.578125,-7.507812,-6.304688,0.8575904237557258,-0.4902602403878714,0.0181048420087504,-0.1544531530048491
zero,0,2,2.050781,-7.207031,-6.769531,0.859177608718409,-0.4825565122336683,0.0194187628459625,-0.1690442570078221
zero,0,2,2.585938,-6.589844,-7.511719,0.8619020935185708,-0.4725255604625418,0.020780623634208,-0.1827909778387297
zero,0,2,3.074219,-6.375,-7.5,0.8654008579932894,-0.4613929878249234,0.0222258237540772,-0.1941748658527191
zero,0,2,3.527344,-6.0625,-7.875,0.8697428298331216,-0.4485664603386609,0.0237707567911652,-0.2043783054404096
zero,0,2,3.527344,-6.0625,-7.875,0.8747106016543601,-0.4346385588095595,0.025599729329897,-0.2128740012487482
zero,0,2,3.511719,-6.894531,-9.371094,0.8865136982192001,-0.4030271795676342,0.0308782227393613,-0.2251867908202726
zero,0,2,2.507812,-7.519531,-8.472656,0.899114724476877,-0.3690237726762694,0.0380132377318551,-0.2323126367328814
zero,0,2,1.386719,-7.980469,-7.726562,0.9053571233885184,-0.351622193664416,0.0412008812266576,-0.2345054358398496
zero,0,2,-0.417969,-8.222656,-6.585938,0.9120556199051556,-0.332339336539374,0.0438022083209406,-0.2361916131749805
zero,0,2,-0.683594,-8.308594,-6.210938,0.9183713755593068,-0.313541007624693,0.0456717105736158,-0.2370657038550263
zero,0,2,-0.839844,-8.441406,-6.492188,0.9246333883735466,-0.2943620460299428,0.0471930273606737,-0.2370166684654368
zero,0,2,-0.089844,-7.609375,-8.054688,0.936395993534144,-0.2566789213621478,0.0508734245183488,-0.2338597214129515
zero,0,2,-2.4375,-6.40625,-6.6875,0.9514896810301666,-0.2053607493566362,0.0576524398401725,-0.2217443250621489
zero,0,2,-3.414062,-6.019531,-6.359375,0.9559448818594516,-0.1894677491420211,0.0592446690705543,-0.216243899494288
zero,0,2,-4.34375,-5.46875,-6.0,0.9601602081165788,-0.1740519182791035,0.0600793348352612,-0.2102112699610668
zero,0,2,-5.554688,-3.515625,-3.71875,0.9680523383038424,-0.1439734913952796,0.0594509831682144,-0.1964990704310042
zero,0,2,-5.589844,-3.207031,-3.253906,0.971421049660244,-0.1305928412402819,0.0583636841365291,-0.1894210507514713
zero,0,2,-5.589844,-3.207031,-3.253906,0.9746121907758074,-0.117591880445647,0.0571206590239076,-0.1817703428976026
zero,0,2,-6.488281,-2.652344,-1.671875,0.9774497249379208,-0.105770501937986,0.0561190175688047,-0.1739404840906265
zero,0,2,-6.984375,-2.488281,-1.015625,0.98169925694188,-0.0874507145051092,0.0550151130420776,-0.1599758693968379
zero,0,2,-7.71875,-2.222656,0.691406,0.9833231801272904,-0.080031590267742,0.0547227988508013,-0.1538696957477448
zero,0,2,-7.703125,-1.707031,0.835938,0.9846754237790522,-0.0735689308998376,0.054515894927303,-0.1484248611657571
zero,0,2,-7.5,-1.011719,1.019531,0.9864283838661524,-0.0649305727447298,0.0547548651716915,-0.1405167924708017
zero,0,2,-6.226562,0.984375,1.578125,0.9874835008530116,-0.0595984169707353,0.0559485743778484,-0.1348855858227593
zero,0,2,-5.660156,1.453125,1.640625,0.987844075937731,-0.0579647793512459,0.0565713040727064,-0.1326795144135109
zero,0,2,-5.054688,1.796875,1.585938,0.9881721546296884,-0.0566943431525177,0.0568626503642162,-0.1306452573290756
zero,0,3,-8.21875,-9.292969,-12.304688,1.0000000000000002,0.0,7.589415207398531e-19,0.0
zero,0,3,-9.617188,-9.160156,-12.933594,0.999495116894195,0.0148931190910784,-0.0044209319667642,0.0277157296303652
zero,0,3,-9.417969,-9.53125,-11.394531,0.9978569657932734,0.0285823216591801,-0.0087411767641459,0.0582075470638544
zero,0,3,-10.15625,-11.152344,-9.066406,0.9950899460470513,0.0400966034922591,-0.0121431294056311,0.0896705418334208
zero,0,3,-11.320312,-11.84375,-7.734375,0.9915747574459252,0.0488553639238049,-0.014007726842956,0.1191488036054925
zero,0,3,-15.082031,-11.808594,-4.695312,0.9763245877027358,0.0640828372731172,-0.0137761283134032,0.2061405047602308
zero,0,3,-18.347656,-10.355469,-2.757812,0.970315817505906,0.0654351144849625,-0.0130693224253281,0.2324535499869336
zero,0,3,-18.382812,-8.988281,-1.636719,0.9637484658520304,0.0654075710709358,-0.0127751498006129,0.2583554523559161
zero,0,3,-15.789062,-6.871094,1.921875,0.9492906218778332,0.0599046759663071,-0.0110605148279137,0.3084419070488148
zero,0,3,-14.410156,-6.339844,6.867188,0.942537857858469,0.0535383923512575,-0.0080321712634812,0.3296839566506166
zero,0,3,-14.53125,-6.148438,9.375,0.9356720411089968,0.0443432217052529,-0.0029003336926919,0.3500615635001847
zero,0,3,-15.289062,-5.863281,10.777344,0.9291140014376228,0.0332254214496465,0.0036041405121721,0.3682801296204166
zero,0,3,-17.695312,-5.332031,13.226562,0.9220100096901652,0.0192418967951591,0.0110362440728404,0.3865300670783974
zero,0,3,-16.433594,-6.070312,16.933594,-0.9084483519113012,0.0144106771926467,-0.0223576600800779,-0.4171499242817066
zero,0,3,-16.433594,-6.070312,16.933594,-0.9014404701083724,0.0365660081794733,-0.0265368643909326,-0.43053896539676
zero,0,3,-14.242188,-7.140625,18.1875,-0.8953064093179464,0.0595977915477577,-0.0298397824911185,-0.4404362883070816
zero,0,3,-13.503906,-8.046875,18.832031,-0.8896115302058499,0.0853584935791362,-0.033243090336945,-0.4474373138703973
zero,0,3,-12.640625,-10.027344,20.957031,-0.8839671733021092,0.1150989255018206,-0.0373636854821307,-0.4516173478508077
zero,0,3,-10.636719,-12.066406,23.117188,-0.8785080776051674,0.147238448886846,-0.0417116660563466,-0.4525533489729944
zero,0,3,-9.261719,-13.054688,23.355469,-0.8732913990547106,0.1807620167990249,-0.0460924081587545,-0.4500696785276051
zero,0,3,-3.53125,-17.003906,19.953125,-0.8567767596778532,0.290635636026225,-0.0606873088608809,-0.4216415085007335
zero,0,3,-2.066406,-17.164062,18.671875,-0.8505041527899161,0.3292523794512847,-0.0648750796202902,-0.4050021984595086
zero,0,3,-0.488281,-17.085938,17.273438,-0.84410975989516,0.3663092723196468,-0.0677185713600508,-0.3856299072366402
zero,0,3,3.261719,-16.605469,14.886719,-0.8301806006316015,0.4419044688745773,-0.0684137737871719,-0.3329266680213958
zero,0,3,5.226562,-17.082031,13.796875,-0.8238001629869185,0.474792990188609,-0.0664020579575009,-0.3025155774989027
zero,0,3,7.191406,-17.257812,12.726562,-0.8171659894680131,0.5072887412417437,-0.0634719585648014,-0.2662126765240123
zero,0,3,9.113281,-16.976562,10.976562,-0.8113699166244107,0.533958141137013,-0.0606592819123667,-0.2299739407591184
zero,0,3,12.550781,-14.566406,7.433594,-0.8058770242274711,0.5567331925651806,-0.0590897785703099,-0.1926623268492551
zero,0,3,13.515625,-13.3125,4.628906,-0.8006479657438942,0.5749188711000639,-0.0603534846830186,-0.1574439058516048
zero,0,3,15.699219,-12.519531,1.25,-0.7911580223721298,0.5998767606841306,-0.0730141947730056,-0.0942644311974794
zero,0,3,14.726562,-9.042969,0.683594,-0.7870666184193073,0.6076005519269351,-0.0833505135416552,-0.0663355060312565
zero,0,3,9.105469,-8.003906,-0.386719,-0.7784249578191831,0.6170195916492384,-0.115371403119548,0.00555408925359
zero,0,3,6.179688,-7.628906,-2.203125,-0.7778966611093469,0.6156455104893708,-0.1228558956098725,0.0276372748857072
zero,0,3,5.808594,-7.570312,-2.738281,-0.7792197966224755,0.6114003511186046,-0.1284730101528281,0.050008048011755
zero,0,3,5.808594,-7.570312,-2.738281,-0.782379781765041,0.604496131146648,-0.1319470865859234,0.0711074599146112
zero,0,3,6.074219,-9.1875,-5.199219,-0.8008101318258869,0.5690357912442244,-0.1373365800307538,0.1266493775488905
zero,0,3,6.144531,-9.265625,-5.570312,-0.8088092140026453,0.5539131632029417,-0.1394773784943098,0.1398353455435692
zero,0,3,6.144531,-9.265625,-5.570312,-0.827174044388433,0.5185007452659867,-0.1462060232518555,0.1598870733160653
zero,0,3,4.21875,-11.5,-4.5,-0.8362807734267704,0.5003787319727392,-0.1502815502681301,0.1663461698840216
zero,0,3,2.742188,-11.804688,-4.589844,-0.8456878414212206,0.4812822833940013,-0.1542246997856223,0.1714473112632777
zero,0,3,1.773438,-12.183594,-4.503906,-0.8555908546449108,0.4608314157954125,-0.1572188131744865,0.1757297369485103
zero,0,3,1.078125,-12.269531,-4.457031,-0.8765025196049855,0.4166048447066415,-0.1583186572922393,0.1819860962992767
zero,0,3,0.195312,-11.730469,-5.457031,-0.8874039450114802,0.3928084983073135,-0.156364114868257,0.1837552328971384
zero,0,3,1.007812,-11.050781,-7.210938,-0.9088075119862336,0.343747206554265,-0.1500943203521403,0.1826977261532293
zero,0,3,1.824219,-11.296875,-7.890625,-0.9193220495818804,0.3177340908260314,-0.1472574525118863,0.1794638107230405
zero,0,3,1.453125,-11.734375,-7.792969,-0.9287219703720188,0.2927320883571412,-0.1454162314571459,0.1750358415387641
zero,0,3,-1.226562,-12.394531,-6.40625,-0.944345710392995,0.2461907558969899,-0.143228998804919,0.1645805118310152
zero,0,3,-4.722656,-11.855469,-5.757812,-0.9515005254917324,0.2224807202299721,-0.1414604556371021,0.1585497354329346
zero,0,3,-6.609375,-9.984375,-6.488281,-0.9642324291628674,0.1768674818357639,-0.1339179865174913,0.1450506439380832
zero,0,3,-6.710938,-6.585938,-5.679688,-0.978216898712303,0.1180676481634276,-0.1200554788881774,0.1214018596223769
zero,0,3,-8.585938,-5.128906,-4.320312,-0.9813943514941396,0.1022354527168123,-0.1168866193117732,0.1129183655967886
zero,0,3,-9.625,-4.328125,-3.449219,-0.9838384081550536,0.0892220610850565,-0.1145787461257919,0.1047526677030507
zero,0,3,-10.457031,-3.644531,-2.453125,-0.9858105389811264,0.0781898179929425,-0.1126612727155085,0.0968058429336429
zero,0,3,-11.046875,-2.578125,-1.496094,-0.9874413744814308,0.0687539958861285,-0.110796584057896,0.0891994224926063
zero,0,3,-10.3125,-0.335938,-0.082031,-0.9889101868948608,0.0602517554849346,-0.1083102718614348,0.0818245270432832
zero,0,3,-8.96875,0.261719,0.347656,-0.9912216091741288,0.0468739989938771,-0.1026228377054489,0.0689282446160766
zero,0,3,-5.238281,1.542969,2.035156,-0.9927967658527924,0.0348287459640789,-0.1006041035922863,0.0549577520209615
zero,0,3,-5.191406,1.910156,2.433594,-0.992891683267864,0.0326721188718019,-0.102038336036852,0.0518345051559728
zero,0,3,-5.257812,1.902344,2.640625,-0.9928901615763908,0.0311297411209805,-0.1038423997108079,0.0491611867721913
zero,0,3,-4.898438,1.566406,2.777344,-0.9928366113221948,0.0300803440225088,-0.1056804109925663,0.0469285292140146
zero,0,3,-4.542969,1.539062,2.539062,-0.9927620104874284,0.0294387391841737,-0.1073537426728622,0.0450790982866176
zero,0,3,-4.082031,1.570312,2.113281,-0.9926917637381802,0.0291544295030807,-0.1087841279292154,0.043348528895578
zero,0,4,-9.003906,-6.296875,-10.882812,1.0,0.0,2.1684043449710093e-19,0.0
zero,0,4,-13.757812,-7.449219,-10.046875,0.9966281665252332,0.0202658511002753,-0.0252504673682338,0.0753923528311667
zero,0,4,-12.882812,-7.730469,-7.996094,0.9942533260965456,0.024407504623711,-0.03038836914589,0.0997052871449286
zero,0,4,-13.488281,-7.714844,-6.542969,0.9913767610658654,0.0265677566950715,-0.0323406684352362,0.1241787143108987
zero,0,4,-14.804688,-7.492188,-5.300781,0.98827157441298,0.0263233848029911,-0.0303958176134512,0.147317578351713
zero,0,4,-18.847656,-6.066406,-4.113281,0.9850619616430576,0.0238415403538023,-0.0253822928135222,0.1686423786864315
zero,0,4,-20.300781,-5.222656,-3.101562,0.9814982647507908,0.0193339270178779,-0.018531351595001,0.1895888830214377
zero,0,4,-21.386719,-4.53125,-1.875,0.9718004249999892,0.0036286298985332,-0.0039725061270838,0.2357434754345707
zero,0,4,-21.269531,-5.074219,4.671875,0.9660907329534776,-0.0075406919354405,0.0009081387218328,0.2580910865384718
zero,0,4,-20.53125,-5.09375,7.203125,-0.959091026691676,0.0227040047029944,-0.004599468434538,-0.2821484991632464
zero,0,4,-19.28125,-6.925781,12.53125,-0.934933093161835,0.0845186719355066,-0.0119267858203217,-0.3444044964646914
zero,0,4,-15.578125,-10.640625,19.460938,-0.9267036024802612,0.1091135958297957,-0.0149615362299629,-0.3592920939692908
zero,0,4,-10.125,-13.519531,24.972656,-0.9191132156478375,0.1342539990942944,-0.0196159918975212,-0.369894543634476
zero,0,4,-10.125,-13.519531,24.972656,-0.9124981604812288,0.1594089009694534,-0.0267968765662651,-0.3757896177602262
zero,0,4,-6.75,-15.945312,29.816406,-0.9058131568632716,0.1888374122867014,-0.0383460781146879,-0.3773228522995642
zero,0,4,-4.9375,-15.933594,33.953125,-0.8996439661895311,0.2190452866471526,-0.0523030871054497,-0.3740645446653241
zero,0,4,-4.9375,-15.933594,33.953125,-0.8937774345854176,0.250324370280592,-0.067291191091255,-0.3660211778996603
zero,0,4,3.160156,-14.519531,31.386719,-0.877078117477962,0.3485334628309409,-0.1047460037824156,-0.3135070586446201
zero,0,4,5.878906,-14.765625,28.925781,-0.8719761030406031,0.3803958522795251,-0.1124837006789368,-0.2868868912589565
zero,0,4,10.480469,-14.476562,23.757812,-0.8674080197245618,0.4094127134502778,-0.1175864780307919,-0.2572119312300833
zero,0,4,12.175781,-14.28125,20.890625,-0.8588360828029121,0.4610668945472513,-0.1224956498428692,-0.186581664152393
zero,0,4,14.070312,-14.195312,17.835938,-0.8545574480531425,0.4824452864089383,-0.1238644395654132,-0.1470908365937332
zero,0,4,17.105469,-10.816406,6.5,-0.8413014604902145,0.5228431225130007,-0.1327749729371114,-0.0348959650882001
zero,0,4,15.496094,-9.464844,3.691406,-0.8367781502432633,0.529823458076661,-0.1381599876558244,-0.0011172994647516
zero,0,4,14.242188,-9.144531,2.390625,-0.8287985700070206,0.5363106412277567,-0.1503936265337012,0.0533440114561345
zero,0,4,12.816406,-8.585938,1.398438,-0.8251364488441982,0.5371525821246752,-0.1569420551279308,0.0773701210920692
zero,0,4,6.242188,-7.0,-3.222656,-0.8215163381967459,0.5371032263950414,-0.163565505905742,0.0993848859215801
zero,0,4,6.242188,-7.0,-3.222656,-0.8183777360888375,0.5365231595586196,-0.1692028564391234,0.1173506442427409
zero,0,4,2.9375,-7.015625,-4.089844,-0.8163245416783081,0.534422987929146,-0.1726635757491731,0.1348836618575192
zero,0,4,-4.285156,-8.457031,-5.328125,-0.8168262746178426,0.5294837146695047,-0.1711919830637136,0.1521023929083053
zero,0,4,-3.164062,-9.027344,-6.710938,-0.8207908426088851,0.5200536844109279,-0.1643317330981772,0.1698282647764059
zero,0,4,-0.285156,-8.984375,-8.261719,-0.8275636282860054,0.5067792543635228,-0.1541548350814786,0.1858749991415088
zero,0,4,3.011719,-9.441406,-8.535156,-0.8364491820231712,0.489718902747152,-0.1421562385234604,0.2007978237774358
zero,0,4,6.210938,-10.933594,-6.820312,-0.8552024422784741,0.4516605692134813,-0.1228701481572172,0.2225633384690994
zero,0,4,5.246094,-11.472656,-6.625,-0.8639928405878148,0.4325584387200314,-0.1173316790594922,0.229440287644014
zero,0,4,3.683594,-11.84375,-6.664062,-0.8722563255098288,0.4140298686415895,-0.114285103877843,0.2338527004598202
zero,0,4,0.507812,-12.3125,-7.257812,-0.8800582617058055,0.3961100321699318,-0.112625232834656,0.2364526492696399
zero,0,4,-0.4375,-12.46875,-7.59375,-0.8885924153436595,0.3759939482191611,-0.1113269231884366,0.2379882065768893
zero,0,4,-1.070312,-12.417969,-7.679688,-0.8972445857783515,0.3549335586571541,-0.1099214140435252,0.2385196112798163
zero,0,4,-1.925781,-11.816406,-7.664062,-0.905461930050124,0.3341206459323128,-0.1081777629810833,0.2383267899084928
zero,0,4,-1.808594,-11.5,-7.648438,-0.914025726225958,0.311502709402108,-0.105744501513414,0.2373628745864339
zero,0,4,-1.808594,-11.5,-7.648438,-0.9221762394880172,0.2889084208648395,-0.1031800918647383,0.2355350851145291
zero,0,4,-1.335938,-11.3125,-7.953125,-0.929834864689726,0.2664889617676101,-0.1011939308158482,0.2327026988014915
zero,0,4,-1.242188,-10.046875,-8.699219,-0.9369963686368324,0.2442860829131063,-0.1000348139157325,0.2288124796885103
zero,0,4,-1.828125,-9.582031,-8.429688,-0.9486619267704026,0.2051985334796074,-0.1007713732516197,0.2185846309489033
zero,0,4,-2.46875,-9.042969,-8.109375,-0.9540044782788896,0.1860389471369111,-0.1021448537040977,0.2117342542759241
zero,0,4,-4.394531,-8.109375,-7.40625,-0.9586818170065045,0.1684367929399237,-0.1039075780226676,0.2043561492950077
zero,0,4,-5.195312,-7.753906,-6.957031,-0.9628752458411598,0.152104379629376,-0.105816346535049,0.1963120461150139
zero,0,4,-5.925781,-7.125,-6.773438,-0.9666480716974838,0.1367824276793859,-0.1076470070013486,0.1878674927849989
zero,0,4,-6.472656,-6.402344,-6.5625,-0.9699851905623188,0.1228498027276414,-0.1089729259545058,0.1793364365333367
zero,0,4,-6.964844,-5.339844,-4.863281,-0.9731107201901495,0.1094542082228084,-0.1097045589969368,0.170411890103403
zero,0,4,-6.964844,-5.339844,-4.863281,-0.9758369517271674,0.0974862062186786,-0.1099951253611392,0.1616779380054884
zero,0,4,-6.957031,-3.605469,-1.882812,-0.9802406034792988,0.0773287275400994,-0.1106211766500131,0.1446083761894034
zero,0,4,-7.160156,-2.410156,-1.386719,-0.981745789304914,0.0700958909895596,-0.1113676424806725,0.1373281451733328
zero,0,4,-7.464844,-0.914062,-0.71875,-0.982998408712543,0.0641427668351026,-0.1122134803090521,0.13041460335513
zero,0,4,-7.625,1.050781,1.324219,-0.9841050475206128,0.0594103628657967,-0.1127721884253092,0.1236531348020484
zero,0,4,-7.511719,1.128906,1.953125,-0.9851359949091004,0.0556772527653201,-0.1125820008133449,0.1171853580948886
zero,0,4,-7.179688,1.007812,2.464844,-0.986116588654708,0.0527771890509876,-0.1114862056098817,0.1111731435850807
zero,0,4,-7.179688,1.007812,2.464844,-0.9871073274205197,0.0505253754761128,-0.1095114203460641,0.105230981177145
zero,0,4,-4.75,1.234375,3.417969,-0.9878993473013592,0.0490194414851907,-0.1074223963598922,0.1005604431092404
zero,0,4,-4.75,1.234375,3.417969,-0.9886114923103464,0.0479345415469252,-0.1054138839929036,0.0961119662691724
zero,0,4,-2.890625,1.238281,3.171875,-0.9894416934120543,0.0473785146210117,-0.104830642973106,0.0881529805737591
zero,0,4,-2.613281,1.261719,2.765625,-0.9893651532355768,0.0478430654477393,-0.1065116283732511,0.0867346970536319
zero,0,5,-6.964844,-7.898438,-8.316406,1.0,0.0,6.938893903907228e-18,0.0
zero,0,5,-6.820312,-8.167969,-7.265625,0.99950208005516,0.0112220319967282,-0.0092128128951255,0.0280139615519222
zero,0,5,-8.03125,-8.203125,-6.710938,-0.9981324199334476,-0.0200720374140395,0.016624025437968,-0.0552487770913217
zero,0,5,-9.824219,-8.265625,-5.855469,-0.99605876856463,-0.0269676076228302,0.0231622328357187,-0.0812600066125866
zero,0,5,-11.808594,-8.484375,-4.921875,-0.9929846813596148,-0.0331333905609526,0.0304557591344572,-0.1093437138139363
zero,0,5,-13.789062,-9.316406,-3.722656,-0.989328381558842,-0.037814266665695,0.0376304094270822,-0.135585349374659
zero,0,5,-13.140625,-8.832031,-2.492188,-0.984854779574578,-0.0413604971568658,0.0449223481462675,-0.1622724716674757
zero,0,5,-10.589844,-7.792969,1.320312,-0.9689892410688618,-0.0423030630565767,0.0586826164158908,-0.2362766431101643
zero,0,5,-10.574219,-7.394531,2.824219,-0.9633790920740982,-0.0389348361133198,0.0586527944049098,-0.2587366483508099
zero,0,5,-10.75,-6.703125,4.457031,-0.9576598937929478,-0.0338282663271678,0.0566405519696852,-0.280241010721749
zero,0,5,-12.167969,-5.363281,6.648438,-0.9522422001558084,-0.0274574115967877,0.0535362421026918,-0.2993572340404547
zero,0,5,-12.167969,-5.363281,6.648438,-0.9467470794502308,-0.0197207529279908,0.0497314999302693,-0.3175024997871623
zero,0,5,-11.859375,-4.894531,7.386719,-0.940770312951646,-0.0100526636123886,0.0455265789372282,-0.3358236037467143
zero,0,5,-10.863281,-4.007812,9.726562,-0.9346115876298516,0.0014454760584789,0.04120613793991,-0.3532720553101388
zero,0,5,-10.484375,-4.265625,10.425781,0.9285552361439576,-0.014237701312134,-0.0370385022901832,0.3690672169660777
zero,0,5,-9.964844,-5.5,13.632812,0.9100340257264316,-0.0634865959892204,-0.0240656934406988,0.4089356508658354
zero,0,5,-8.792969,-5.753906,14.761719,0.90404777263575,-0.0834655641205472,-0.0198615314671444,0.4187321864463701
zero,0,5,-7.609375,-5.582031,15.144531,0.8927776729009238,-0.126858184254743,-0.0108324790865391,0.4321315601226558
zero,0,5,-6.132812,-6.394531,17.484375,0.8870084363346586,-0.1520297309121875,-0.0053934524298203,0.4359746614894023
zero,0,5,-5.65625,-6.761719,18.703125,0.8811195637054042,-0.1793671277217315,9.45336239650246e-05,0.4375565552152639
zero,0,5,-4.859375,-7.773438,18.441406,0.8694500163046667,-0.2392051651450957,0.0092224044738321,0.4321487074739936
zero,0,5,-3.714844,-8.644531,18.328125,0.8638906016391427,-0.2698351270291124,0.0135340819978111,0.4250868867010829
zero,0,5,1.820312,-9.667969,18.015625,0.8462527518185217,-0.3682076652823614,0.029073476613174,0.3839715200695429
zero,0,5,3.523438,-9.777344,16.066406,0.8403628488685005,-0.3988365681349577,0.0355885010249036,0.3653123769525846
zero,0,5,3.523438,-9.777344,16.066406,0.8342170526822341,-0.4290406541627466,0.0427374619675805,0.3437725053495971
zero,0,5,5.625,-8.113281,10.503906,0.8215486578628456,-0.4852409582145454,0.0571538307084633,0.2938238500703017
zero,0,5,5.625,-8.113281,10.503906,0.8144812411055837,-0.5122412570718788,0.0646336227809173,0.2646728116878336
zero,0,5,6.015625,-7.675781,9.238281,0.8076594494064886,-0.5355343077246152,0.0714617999541285,0.2361830438063686
zero,0,5,6.609375,-6.328125,6.578125,0.800903955107446,-0.5561858266789579,0.0777622200830444,0.2077575943797252
zero,0,5,7.203125,-6.6875,3.503906,0.780749070314758,-0.6056110818841839,0.0953959875331474,0.120688492675502
zero,0,5,7.207031,-6.398438,2.890625,0.7745536340588852,-0.6176081009807007,0.1005735531980489,0.0922597526893842
zero,0,5,7.148438,-6.359375,2.332031,0.7685668590782331,-0.6277105436200136,0.1057273933603406,0.064079441696337
zero,0,5,6.84375,-6.390625,1.757812,0.7629512649539536,-0.6357547031906248,0.1110978797546611,0.0371293117385925
zero,0,5,5.910156,-6.011719,1.660156,0.7580992809959846,-0.64153493765658,0.1164855763500409,0.012227608995141
zero,0,5,4.996094,-6.386719,1.886719,0.7511010154909916,-0.6471109712824291,0.1262622034618335,-0.0339486575769217
zero,0,5,3.988281,-6.921875,2.050781,0.748920887065889,-0.6471242638848546,0.1302651899328,-0.0581263477237187
zero,0,5,0.773438,-8.113281,-1.4375,0.7534880390959345,-0.6267683299973422,0.1374186610601679,-0.1432946162426782
zero,0,5,1.628906,-8.746094,-1.6875,0.7578674338938404,-0.6163695142193628,0.1395090769851644,-0.1620579896916517
zero,0,5,2.0625,-9.007812,-2.003906,0.7625643196392179,-0.6054705174049901,0.1423665507948787,-0.1778563357917826
zero,0,5,2.351562,-9.355469,-2.144531,0.7680163542272193,-0.5932071404820216,0.1461451142234777,-0.1920879322322996
zero,0,5,2.464844,-9.800781,-1.882812,0.7738659385386454,-0.5802791074868106,0.1507615117161679,-0.2041534549525621
zero,0,5,3.203125,-11.101562,-2.660156,0.7803281747150088,-0.566043177923031,0.1568100257436,-0.2146943788249476
zero,0,5,3.066406,-11.871094,-3.332031,0.7868468609083946,-0.5515409299183176,0.1636497410975958,-0.2233682661931473
zero,0,5,-0.097656,-11.195312,-3.824219,0.8076376655010497,-0.5061798230253499,0.180178817392847,-0.2429793855226305
zero,0,5,0.027344,-10.878906,-3.890625,0.8152432556440129,-0.4903681154964281,0.1828460462693301,-0.2479614260224887
zero,0,5,0.027344,-10.878906,-3.890625,0.8236071852660428,-0.4732619521312676,0.1848003090387315,-0.2520777158382653
zero,0,5,0.675781,-9.929688,-5.40625,0.831805875754917,-0.4565349386907777,0.1863001814795396,-0.2548864005687509
zero,0,5,1.046875,-9.519531,-5.785156,0.8403279256048483,-0.4392307588242372,0.1875711916984749,-0.2564027417875075
zero,0,5,1.234375,-9.046875,-5.808594,0.8489263906817309,-0.421805626652399,0.1885270752063003,-0.2566350296483787
zero,0,5,1.285156,-8.863281,-6.382812,0.8577745069599215,-0.4038840741529346,0.1890801766247435,-0.2556349676058547
zero,0,5,0.652344,-9.15625,-6.597656,0.866428423278551,-0.3862829211991327,0.1890989433856201,-0.2536313894914243
zero,0,5,0.652344,-9.15625,-6.597656,0.8750746682910621,-0.3684585853803736,0.1885736731265893,-0.2508437074720591
zero,0,5,-0.804688,-8.554688,-6.152344,0.8929707110772471,-0.3307771340107449,0.1851412856173168,-0.2427189756360235
zero,0,5,-0.480469,-8.273438,-6.070312,0.9015307933072084,-0.3121691480454371,0.1825114307005752,-0.2376599027835584
zero,0,5,-0.183594,-8.136719,-6.144531,0.9101873749968996,-0.2927900414272304,0.1796569730672254,-0.2314223542910583
zero,0,5,-0.183594,-8.136719,-6.144531,0.9181312338388802,-0.2743086367263508,0.1772050789687803,-0.2244730924955031
zero,0,5,-0.71875,-7.566406,-6.5625,0.9328245286885491,-0.2377669903848964,0.1737993270676562,-0.2076031090112189
zero,0,5,-1.019531,-7.101562,-6.773438,0.9393297712986036,-0.2205447176786861,0.1726044750504684,-0.198058838350359
zero,0,5,-1.351562,-6.960938,-6.910156,0.9455933747403784,-0.203290039408401,0.1712242260687318,-0.1876395318998545
zero,0,5,-2.429688,-7.296875,-6.523438,0.9512233620484328,-0.1873217861673088,0.1694415637518106,-0.1771276951628572
zero,0,5,-4.96875,-5.089844,-5.679688,0.9660083090109544,-0.144078281647737,0.1603383285575858,-0.1426920322743747
zero,0,5,-5.25,-3.96875,-5.167969,0.9702486954497688,-0.1314540788820012,0.1562362078347594,-0.1301058856651755
zero,0,5,-5.867188,-2.40625,-3.480469,0.9742617024023528,-0.1196291537992684,0.1514027486535626,-0.1165341516186841
zero,0,5,-5.867188,-2.40625,-3.480469,0.9779167775385568,-0.1091027073854822,0.1460104054728335,-0.102256231807269
zero,0,5,-5.433594,-3.332031,-0.675781,0.9812091181811948,-0.0993961645455076,0.1405086476654735,-0.0872146134712773
zero,0,5,-4.84375,-3.257812,0.546875,0.983672826263294,-0.0914984077461741,0.1364699175231302,-0.0734286991736081
zero,0,5,-4.84375,-3.257812,0.546875,0.9852636741856288,-0.08556646498736,0.1346726905489158,-0.0616209284262927
zero,0,5,-7.492188,-1.390625,4.726562,0.986266430455842,-0.0805784813516903,0.1351593408044083,-0.0501755826300469
zero,0,5,-7.492188,-1.390625,4.726562,0.9866694498786256,-0.0769478634165803,0.137561445739965,-0.0404879196522195
zero,0,5,-9.886719,-0.457031,5.964844,0.9866880601532072,-0.0742627881931654,0.1408916180827057,-0.0328825515268381
zero,0,5,-9.9375,-0.125,5.917969,0.986573940772147,-0.071711844705804,0.1442168748147741,-0.0270326420622688
zero,0,5,-8.367188,0.910156,5.234375,0.9863982759121476,-0.0661038690077584,0.1493497340556123,-0.0185304267966416
zero,0,5,-5.152344,1.992188,4.4375,0.9863812898775512,-0.0633561076318326,0.1509951531455137,-0.0154408008796399
zero,0,5,-3.328125,2.644531,3.847656,0.9860902266382174,-0.0593108918814506,0.1549360698014702,-0.0101536844194425
zero,0,5,-3.074219,3.351562,3.714844,0.9857494460782448,-0.0583892962306528,0.1575892885615045,-0.0073712802688177
zero,0,5,-3.652344,4.171875,3.652344,0.9853997025321524,-0.0582373420889451,0.1599244976487083,-0.0044713854417657
zero,0,5,-2.957031,2.144531,2.957031,0.9851514796806602,-0.0584339232655341,0.1614254016521789,0.001969364424353
zero,0,5,-1.816406,1.699219,2.578125,0.985743604409796,-0.0575304501161313,0.1578932468635787,0.0083376417226814
zero,0,5,-0.382812,1.035156,1.820312,0.9860740400028694,-0.0570175574766229,0.1558265122475961,0.0111840892597258
zero,0,5,-0.089844,0.667969,1.476562,0.9863358920399315,-0.0566545537840751,0.1540973174705814,0.0136303469394782
zero,0,5,0.0,0.609375,1.335938,0.9865490959513762,-0.0563446851368123,0.152624123221446,0.0158756022008759
zero,0,5,-0.085938,0.953125,1.167969,0.9867193287187536,-0.056293676425657,0.1513355071051638,0.0177074169917305
zero,0,6,-1.3125,-8.984375,-12.238281,1.0,0.0,0.0,0.0
zero,0,6,-4.148438,-8.558594,-13.34375,0.9996938323406716,0.0234013193353603,0.0072838473412812,0.0034007942153154
zero,0,6,-4.148438,-8.558594,-13.34375,0.9987654658532188,0.0469775880839472,0.0133599279216202,0.0090643677521975
zero,0,6,-6.59375,-7.867188,-13.355469,0.9973331001615668,0.0688751123374271,0.0171043660555824,0.0170395682005668
zero,0,6,-7.421875,-7.503906,-13.371094,0.9954455118458868,0.0893355801854289,0.0183833837560011,0.0277387501609731
zero,0,6,-8.136719,-7.097656,-13.949219,0.9927719498737272,0.1106649965655588,0.017392281223501,0.0430653298246431
zero,0,6,-8.484375,-6.632812,-14.394531,0.9896911206123138,0.1287362177747396,0.0145934381651614,0.0610369034004586
zero,0,6,-9.171875,-6.167969,-14.582031,0.985881097815862,0.1447951081721859,0.0103883262036003,0.08345609802455
zero,0,6,-9.269531,-6.304688,-14.703125,0.9812436648808048,0.1580835220999336,0.0051262525542647,0.1102006883214267
zero,0,6,-11.953125,-10.953125,-11.566406,0.9700790555473096,0.1744702233633898,-0.005473598355192,0.1687507240547872
zero,0,6,-13.671875,-11.171875,-10.667969,0.9633962187368056,0.1787538561858588,-0.0097814324243235,0.1995472580669522
zero,0,6,-15.871094,-10.816406,-9.375,0.9559313542530672,0.1807248359700815,-0.0128408485687459,0.231017082111948
zero,0,6,-19.796875,-10.019531,-6.644531,0.9476257382622166,0.1806226008367444,-0.0148611194845648,0.2629830477000835
zero,0,6,-20.542969,-9.25,-5.320312,0.9292830926420448,0.1746716483219257,-0.0185138518655509,0.3249307407606093
zero,0,6,-19.566406,-8.625,-3.238281,0.9188804224454726,0.1692028039924157,-0.0208267662061313,0.355802510076769
zero,0,6,-14.453125,-7.863281,1.160156,0.9081386431933473,0.1618065919423389,-0.0228481440456798,0.3854617929920158
zero,0,6,-11.710938,-7.179688,7.960938,0.8784732618460962,0.1256521227224986,-0.0177875340185966,0.4606298686693551
zero,0,6,-12.980469,-7.753906,11.824219,0.869700688312364,0.1100897164519313,-0.0112346367422734,0.4810142929454411
zero,0,6,-12.667969,-7.835938,14.507812,0.8611985148240037,0.0928654421390279,-0.003603604173453,0.4997000517892848
zero,0,6,-11.792969,-7.757812,16.652344,0.8540184454064335,0.0754648484318118,0.0035377662857886,0.5147281182978537
zero,0,6,-10.445312,-7.5625,18.457031,0.8480850747313629,0.0573786928803481,0.0102687913236538,0.5266440387453301
zero,0,6,-6.066406,-8.746094,21.648438,0.8388085098838244,0.0140093624239021,0.0255343242918815,0.5436469624617717
zero,0,6,-4.402344,-8.816406,22.953125,0.8361789736136069,-0.0090033063333762,0.0332215451893913,0.547375550693298
zero,0,6,2.445312,-9.917969,23.695312,0.8367880761162689,-0.0819086429063811,0.0603102417068811,0.537995692020044
zero,0,6,3.996094,-10.066406,23.371094,0.8395311019760762,-0.1051383803634909,0.0707484419836593,0.5283257591167234
zero,0,6,5.835938,-9.058594,21.628906,0.8434569379649162,-0.1281398729278441,0.0814197953891042,0.5152973740314225
zero,0,6,5.835938,-9.058594,21.628906,0.8483429824986914,-0.1509636336252091,0.0917162313002526,0.4991115088674844
zero,0,6,6.324219,-9.03125,19.3125,0.8538684648502327,-0.1728733752088588,0.1012267379637331,0.4803921194185284
zero,0,6,7.027344,-8.433594,16.359375,0.8597296587681617,-0.1938662256907568,0.1101106812954568,0.4595176147172718
zero,0,6,7.097656,-8.066406,14.089844,0.8657245932791489,-0.2144140693684863,0.1189297846470183,0.4363521992293748
zero,0,6,7.335938,-7.171875,11.910156,0.8715188252397126,-0.234466194262626,0.1279494630005431,0.4112292255162131
zero,0,6,7.644531,-5.167969,6.921875,0.880959982260434,-0.2702903127144315,0.1466361905574193,0.3596532832148745
zero,0,6,7.207031,-4.15625,5.601562,0.8843570166413032,-0.2858635263455257,0.1559854295190422,0.3344596495847511
zero,0,6,6.539062,-3.34375,4.734375,0.88883599781357,-0.3160697159065058,0.1736427356559867,0.2826989636193258
zero,0,6,5.292969,-2.632812,2.421875,0.8909479209579613,-0.3423322382168475,0.1849357222485356,0.2341350453361102
zero,0,6,5.582031,-2.726562,2.109375,0.8916051191473814,-0.3540372955076752,0.1879898576669672,0.2106127211593546
zero,0,6,6.105469,-2.929688,1.972656,0.8921228520803745,-0.364472856419375,0.1899164682502285,0.1876381859239741
zero,0,6,7.605469,-3.238281,0.742188,0.8924575353624273,-0.373483258340359,0.1915593231241896,0.1653324802889401
zero,0,6,7.09375,-3.730469,-0.664062,0.8933115735255609,-0.3897568176588283,0.1963606114051659,0.107361846027063
zero,0,6,5.128906,-3.886719,-1.480469,0.8942379520882308,-0.3918135838812238,0.1965921642675052,0.0903997869456372
zero,0,6,3.855469,-4.136719,-1.59375,0.8958521652900452,-0.3920888558743483,0.1953451469948958,0.0745352305277486
zero,0,6,2.769531,-4.378906,-1.707031,0.898288068755749,-0.3904400315719258,0.192352169782993,0.0602973470142349
zero,0,6,1.839844,-5.472656,-2.507812,0.9020896780691238,-0.3862472585361093,0.1869907307844343,0.045626029798656
zero,0,6,2.082031,-6.28125,-2.828125,0.9065458196665884,-0.3801868359673349,0.1804623525056854,0.0326494399690727
zero,0,6,3.785156,-6.773438,-3.3125,0.9114404561175908,-0.3724249590073747,0.1735603917172743,0.0212775771050053
zero,0,6,4.855469,-7.625,-3.59375,0.916936081202924,-0.3624601956575659,0.1665591604560335,0.0104343481006248
zero,0,6,4.417969,-8.394531,-3.246094,0.9221139976630004,-0.3518297127892895,0.1609938697731627,0.0016131980745986
zero,0,6,2.605469,-9.386719,-3.472656,0.9375257506222824,-0.3130980522803123,0.150601173045104,-0.0182856024193812
zero,0,6,2.351562,-9.414062,-3.605469,0.9425346898549972,-0.2982328157025373,0.1488809118000209,-0.0228039505278168
zero,0,6,2.203125,-9.546875,-3.765625,0.9519244217534992,-0.2673660420868606,0.1466630396069662,-0.0290731426116698
zero,0,6,1.488281,-9.269531,-4.378906,0.9567000565132876,-0.2502509272036887,0.145359470045238,-0.0311464246637433
zero,0,6,1.0625,-9.019531,-4.523438,0.9609985870145492,-0.2341281413199177,0.1435776433629514,-0.0324220530574723
zero,0,6,0.710938,-8.738281,-4.703125,0.9696717912415322,-0.1996797610863006,0.1370529650938513,-0.0328800097618572
zero,0,6,0.246094,-8.339844,-5.0625,0.9735193862920972,-0.1831950052839225,0.1329857332548646,-0.0318494788520596
zero,0,6,0.496094,-7.824219,-5.332031,0.9807176359088496,-0.1485896703320434,0.1239858218467727,-0.027231314124585
zero,0,6,0.339844,-7.242188,-5.410156,0.9837001223774324,-0.1318955406065759,0.1198865193900437,-0.023766742967103
zero,0,6,0.074219,-6.957031,-5.425781,0.9863000013731368,-0.1154488119618074,0.116179230672992,-0.0196536375307249
zero,0,6,-0.328125,-6.515625,-5.324219,0.988397880777585,-0.1002144632181393,0.1131147347807767,-0.0152232523382406
zero,0,6,-0.714844,-5.96875,-5.324219,0.9902637719033996,-0.0844292441132514,0.110224521559031,-0.0099959812524487
zero,0,6,-1.816406,-4.988281,-5.058594,0.991847807290664,-0.0685594050560229,0.1073362056730911,-0.0040588302218951
zero,0,6,-2.835938,-3.898438,-4.859375,0.9930826399607106,-0.0538494927884168,0.1043187513389275,0.0021680530859159
zero,0,6,-3.1875,-3.300781,-4.847656,0.9940590163426696,-0.0396865661869189,0.1009443300787791,0.0090493489866345
zero,0,6,-3.1875,-3.300781,-4.847656,0.9947660934399302,-0.0265748210727838,0.0972948380588085,0.0163680394158781
zero,0,6,-4.867188,-1.546875,-3.441406,0.9954788812029984,-0.0022931062159212,0.0891254530664209,0.032759614747643
zero,0,6,-5.554688,-1.898438,-2.714844,0.9955032735035536,0.0081205942508851,0.0850326788521315,0.0409479171625547
zero,0,6,-6.363281,-2.882812,-1.652344,0.9953123625644038,0.0188386331367808,0.0806689136068781,0.0499092496987131
zero,0,6,-6.101562,-2.613281,-1.316406,0.9949288026428676,0.0281336774014696,0.0774200852127637,0.057717452067362
zero,0,6,-5.472656,-2.160156,-1.15625,0.9942614958561088,0.0376895466835411,0.0756365003237391,0.0655949369047597
zero,0,6,-4.480469,-2.472656,-1.144531,0.9933979562577292,0.0464089034642001,0.0760612701331574,0.0722592372499728
zero,0,6,-4.546875,-2.253906,-1.273438,0.9922494051103824,0.0551962281393923,0.0791463811468962,0.0782965184962028
zero,0,6,-4.84375,-1.066406,-1.046875,0.9910455151055018,0.0625858565778619,0.083985958239323,0.0828139865258795
zero,0,6,-5.398438,0.121094,-0.617188,0.9897614391389716,0.0692912685723891,0.089709282459649,0.0867367184862084
zero,0,6,-6.554688,0.277344,0.15625,0.988528920671389,0.0751406235470787,0.0947817141476102,0.0904482523460553
zero,0,6,-6.636719,0.648438,0.59375,0.9874573182807904,0.080115135714089,0.0981367822309963,0.0942272867940529
zero,0,6,-6.167969,1.136719,0.875,0.9858839546859428,0.0875803371357317,0.099705436105986,0.1020849570255725
zero,0,6,-3.890625,1.746094,1.953125,0.9853235071843814,0.0900097933900102,0.0989926061628726,0.1060013547500228
zero,0,6,-3.164062,1.289062,2.144531,0.9843149949646156,0.09370518594734,0.0969407839733802,0.1137796696119706
zero,0,6,-2.617188,0.730469,2.230469,0.9838556551871954,0.095198078799508,0.096700837926482,0.1166804332069996
zero,0,6,-1.582031,0.878906,2.027344,0.9833447561240528,0.0966907232467808,0.0973184971971699,0.1192187264846663
zero,0,6,-1.496094,0.984375,1.859375,0.9823573428862888,0.0995601116136036,0.1000941330533055,0.1226499065681846
zero,0,6,-1.335938,0.496094,1.5,0.98144069493493,0.1023521588975954,0.1029760267457106,0.125276238011484
zero,0,6,-1.464844,0.636719,1.453125,0.981105415748758,0.1033009976887075,0.1038116427980583,0.1264286750881426
zero,0,7,6.90625,-7.503906,-5.066406,1.0,2.775557561562892e-17,0.0,0.0
zero,0,7,6.242188,-8.171875,-5.632812,0.9995859213151856,0.0261294244149916,0.0087104685339889,0.0083286749325152
zero,0,7,5.4375,-9.0625,-6.058594,0.9982939384734644,0.0528295982998649,0.0182877188815472,0.0168465215615466
zero,0,7,2.558594,-10.488281,-6.375,0.9959355956561602,0.0812723292507074,0.0288175005077492,0.0260124867642405
zero,0,7,1.171875,-11.050781,-6.710938,0.9929308365363928,0.1069514649115669,0.0381413267984262,0.0345684422337041
zero,0,7,-0.40625,-11.269531,-7.117188,0.9888668644218588,0.1339186207648154,0.0474917803118299,0.0441888929907034
zero,0,7,-1.828125,-11.308594,-7.609375,0.9840099520237852,0.1600896653347542,0.0556343616523283,0.0547771044752477
zero,0,7,-5.175781,-10.917969,-8.179688,0.9786718723069672,0.1843608658771305,0.0617625231119045,0.066316123432099
zero,0,7,-10.445312,-9.632812,-8.734375,0.9605750994573988,0.2456235371896697,0.0634992351511625,0.1137207255343577
zero,0,7,-10.800781,-9.636719,-9.171875,0.9540324862827158,0.261080748564453,0.0580268232534766,0.1352469801117732
zero,0,7,-10.761719,-9.769531,-9.515625,0.9472614810713774,0.2734452105199885,0.0501866563178805,0.1593885279741625
zero,0,7,-10.695312,-9.792969,-9.578125,-0.9407082794164614,-0.2817771316907583,-0.041422934422337,-0.1842653564761767
zero,0,7,-12.433594,-9.648438,-9.109375,-0.934000570241868,-0.2866146631983969,-0.0320879623806913,-0.2108680447526129
zero,0,7,-13.90625,-9.515625,-8.675781,-0.9272565920624034,-0.2879494515445596,-0.0227579920292042,-0.2382486088748545
zero,0,7,-14.816406,-9.359375,-8.632812,-0.9204380095286432,-0.2858798104141404,-0.013473935530272,-0.2662424790934958
zero,0,7,-14.363281,-9.238281,-8.175781,-0.913503912561462,-0.2810891462138052,-0.0043396320461131,-0.2940759446289329
zero,0,7,-13.046875,-8.605469,-8.058594,-0.9063020729226394,-0.2743127984767645,0.0043709631793332,-0.3214808484013595
zero,0,7,-11.210938,-7.425781,-5.921875,-0.8914958560294635,-0.2580656322944208,0.0188439254800691,-0.3718631126950836
zero,0,7,-11.210938,-7.425781,-5.921875,-0.8744959350312177,-0.2381499872455701,0.02966975985105,-0.4214986934015243
zero,0,7,-10.90625,-6.371094,-1.835938,-0.8654143433484204,-0.2282234142135937,0.0323241982556315,-0.4448901367064047
zero,0,7,-7.398438,-5.414062,5.828125,-0.8470541511201392,-0.2091930057821139,0.0286132899486378,-0.4877692395388417
zero,0,7,-7.789062,-4.707031,7.617188,-0.8382669929059232,-0.1998065902558663,0.0219142732248479,-0.5068585006920687
zero,0,7,-9.191406,-5.554688,11.046875,-0.8289697731212576,-0.189236421535176,0.0129019128839189,-0.5261484891737195
zero,0,7,-9.191406,-5.554688,11.046875,-0.821142994390008,-0.1791751649678258,0.0050920009184384,-0.5418436255504074
zero,0,7,-8.195312,-7.421875,13.554688,0.8061023838391874,0.1508779808873364,0.0099393972139097,0.5721328429964182
zero,0,7,-8.246094,-8.425781,14.132812,0.8006842522904506,0.1334296591747342,0.016905661049109,0.5837940157376478
zero,0,7,-4.207031,-11.863281,17.578125,0.796875259900565,0.1149342247096993,0.0238527958360547,0.5926305664405025
zero,0,7,-1.691406,-10.746094,19.488281,0.7944106784535943,0.0934862157920182,0.0326555393238606,0.5992542174797404
zero,0,7,0.09375,-9.847656,20.929688,0.7938346401529394,0.0712789589400932,0.0433115106601735,0.6023869081827751
zero,0,7,0.09375,-9.847656,20.929688,0.7949544921989089,0.0509649820761791,0.0549035862482897,0.6020261806199347
zero,0,7,-1.558594,-10.984375,22.554688,0.7975389130514364,0.0289049459880473,0.0687268978027434,0.5986424640673035
zero,0,7,-1.558594,-10.984375,22.554688,0.8012689406330643,0.0057320942272181,0.0830099693859128,0.5924901457873262
zero,0,7,-0.796875,-10.238281,22.660156,0.8057862762746001,-0.0169488057388531,0.0961176808456678,0.5841083858158439
zero,0,7,3.207031,-9.515625,20.210938,0.8170395305432393,-0.0630309968665035,0.1213883643466276,0.5601235256306847
zero,0,7,3.824219,-10.023438,19.003906,0.8239188232725843,-0.0871702662026402,0.1344607202845176,0.5435801983588529
zero,0,7,5.074219,-9.277344,17.578125,0.8310994569970628,-0.1108952229992456,0.1474497593151104,0.5246279734946003
zero,0,7,5.230469,-9.304688,16.578125,0.8383968516016292,-0.1341765520070837,0.1601747548641627,0.503419725497692
zero,0,7,5.410156,-9.1875,15.5625,0.8454620674448753,-0.1561742580824608,0.1725501430141243,0.4806557414304285
zero,0,7,5.410156,-9.1875,15.5625,0.8525865359636995,-0.1781735151194899,0.1855294568000295,0.4548947327271115
zero,0,7,5.96875,-7.960938,11.503906,0.8654721433505452,-0.2188432508913953,0.2109866032549332,0.398183693627005
zero,0,7,6.152344,-7.378906,9.738281,0.870582536688354,-0.2362055406491287,0.2219447651329195,0.3701803757764809
zero,0,7,5.0625,-6.105469,4.015625,0.8825692841018545,-0.285990303506112,0.248681680974324,0.2782776070908444
zero,0,7,4.421875,-5.578125,1.917969,0.8879061781539539,-0.3155556522279077,0.2563506892464265,0.2152477021153556
zero,0,7,4.375,-5.089844,1.121094,0.890020457099189,-0.3290134820188469,0.2565058709160703,0.1838979412075434
zero,0,7,4.375,-5.089844,1.121094,0.8918519371250105,-0.341140393169218,0.2544447481763547,0.1532358460680432
zero,0,7,5.710938,-4.675781,0.449219,0.8934960615246943,-0.351558720077526,0.2505972534707972,0.1235810298152761
zero,0,7,8.214844,-4.78125,-0.382812,0.8949041811822485,-0.359495049942769,0.2462137670211084,0.0963773650731891
zero,0,7,9.398438,-4.851562,-0.464844,0.8961524699399726,-0.3653836802624795,0.2419712208115138,0.0696810240834498
zero,0,7,7.570312,-5.042969,0.074219,0.8967049370109406,-0.371257207767943,0.2409980574087649,0.0028771419424141
zero,0,7,5.953125,-5.25,0.574219,0.8960962239941522,-0.3701429255124704,0.2445246441951798,-0.0146106268760997
zero,0,7,3.851562,-5.285156,0.382812,0.8957448377527405,-0.3676801566158346,0.2480392912775576,-0.0304794693654374
zero,0,7,1.054688,-6.308594,0.355469,0.8961780993006483,-0.3637285856547093,0.2500818563724911,-0.0450043933943217
zero,0,7,1.054688,-6.308594,0.355469,0.9012046674171584,-0.3489548090212845,0.2461677375833787,-0.0739062491236595
zero,0,7,1.015625,-7.65625,-0.546875,0.9056665607849168,-0.3383608649134587,0.2403098253115748,-0.0867824500101083
zero,0,7,2.890625,-8.824219,-1.796875,0.911162021095622,-0.3253322101960925,0.232681906664166,-0.0990043162341692
zero,0,7,4.289062,-9.722656,-2.121094,0.9274173434266756,-0.2804104025756354,0.2139382346535634,-0.1244889914494231
zero,0,7,3.511719,-10.523438,-2.214844,0.9365185794038068,-0.2471270225296268,0.2099066457470137,-0.133418084375226
zero,0,7,2.699219,-10.847656,-1.914062,0.9407097723688408,-0.2292266322225287,0.2097540083909216,-0.1361011800596261
zero,0,7,2.3125,-11.097656,-1.75,0.9445617319829308,-0.2116240337844566,0.2099556663978738,-0.1376118488562135
zero,0,7,1.210938,-10.984375,-2.554688,0.9484183476360918,-0.1929121300784908,0.2101091560519496,-0.1383534982533592
zero,0,7,0.632812,-11.050781,-3.320312,0.951988891024006,-0.1747867364359518,0.2098893032789859,-0.1382506003676449
zero,0,7,0.285156,-11.03125,-3.871094,0.955483054737606,-0.1567442191319949,0.2089204624868729,-0.1372429314473608
zero,0,7,-0.117188,-10.265625,-5.007812,0.9661856369730208,-0.0989552014347413,0.2001590386432704,-0.1289555825292168
zero,0,7,0.457031,-9.816406,-5.398438,0.9694721185340563,-0.0793073868016362,0.1959185524115809,-0.1242983129601319
zero,0,7,-0.074219,-9.066406,-5.589844,0.9723374592349208,-0.060362912914256,0.1916889872284229,-0.1190441778854655
zero,0,7,-0.234375,-8.53125,-5.566406,0.974845805717252,-0.041654594326386,0.1875296972909572,-0.1130184165565422
zero,0,7,-0.726562,-7.863281,-5.5625,0.9769445105470695,-0.0235286680541925,0.1836168655613172,-0.1063516420793738
zero,0,7,-1.621094,-6.644531,-5.714844,0.9786228803741808,-0.0064097455915981,0.1799855508097189,-0.0993044544283622
zero,0,7,-1.992188,-5.894531,-6.0,0.9800718288290656,0.0116671055653369,0.1762209085107823,-0.0909355837228335
zero,0,7,-2.386719,-5.296875,-6.40625,0.981029740666858,0.0278125701964954,0.1731447624142532,-0.0826317137344633
zero,0,7,-2.386719,-5.296875,-6.40625,0.9816969137260296,0.0447794834827086,0.1701536849507727,-0.0728950679914881
zero,0,7,-5.050781,-3.382812,-6.742188,0.982033929831994,0.0882385882126636,0.1619511424904449,-0.0399391994787821
zero,0,7,-6.328125,-3.046875,-6.054688,0.9820329238342688,0.099627907303896,0.1578511837962181,-0.0277240034247576
zero,0,7,-9.105469,-2.757812,-4.539062,0.982015525272004,0.1093406949884427,0.1531551013935543,-0.0152851385772087
zero,0,7,-10.453125,-2.925781,-3.601562,0.9818435258917964,0.1183529833862191,0.1482258785832633,-0.0022250631826021
zero,0,7,-11.171875,-3.792969,-2.707031,0.9808249013930216,0.1329724895095757,0.1407346080345482,0.0222396030170782
zero,0,7,-7.085938,-3.785156,-2.070312,0.97987727385287,0.1385408116221094,0.1398531440560954,0.0329859030402365
zero,0,7,-7.085938,-3.785156,-2.070312,0.9787065093100256,0.1423614805307937,0.142017805640236,0.041203402485684
zero,0,7,-8.160156,0.988281,1.371094,0.9751755211392992,0.1469889414489579,0.1555618134938604,0.0568108813953155
zero,0,7,-7.078125,1.570312,1.480469,0.9743896823941974,0.1475840449767122,0.1580981210771327,0.0615522592918174
zero,0,7,-3.597656,2.777344,1.5,0.9737419897791164,0.1482137762234743,0.1594240813058765,0.0666571539923704
zero,0,7,-1.996094,3.238281,1.570312,0.9732010545627544,0.1487215674632692,0.1601759168752879,0.0714512310766725
zero,0,7,-0.832031,3.316406,1.757812,0.9725910738412004,0.1492215344792898,0.1613268850008878,0.075981398433939
zero,0,7,-0.257812,2.964844,2.105469,0.971833693354242,0.1499190396139978,0.1632294786105498,0.0801229763251339
zero,0,7,-0.28125,1.578125,2.640625,0.9709218892560596,0.1508231847602457,0.1659410886925252,0.0838248589963616
zero,0,7,-0.476562,1.371094,2.761719,0.9698894968071838,0.1519514545614861,0.1692367972654808,0.0870863128802618
zero,0,7,-1.324219,0.464844,2.546875,0.9666411499171144,0.15596252443258,0.1796555853690411,0.0948917746975126
zero,0,7,-1.382812,0.386719,2.484375,0.9657044895589442,0.1571151688991967,0.1825942604438107,0.0968968451522234
zero,0,7,-1.359375,0.304688,2.429688,0.964902637803472,0.1580189598619936,0.1850984473653789,0.0986482268819932
zero,0,7,-1.015625,0.351562,2.039062,0.9642267093114388,0.1587337365270308,0.1870693199505584,0.1003769070645092
zero,0,7,-1.019531,0.460938,1.871094,0.96322426076724,0.1594601987820564,0.189887528745701,0.1035093952288487
zero,0,7,-0.875,0.40625,1.824219,0.9628614477934032,0.1593923004131976,0.1910288257068096,0.1048804780274089
zero,0,8,1.71875,-4.730469,-11.261719,1.0,1.734723475976807e-18,0.0,0.0
zero,0,8,1.121094,-5.378906,-11.046875,0.9999285510128748,0.0063788902757517,0.0012547521269076,0.0100313620831242
zero,0,8,-1.40625,-6.089844,-10.789062,0.999686793701944,0.012722493548478,0.0030115317006103,0.0213397125719212
zero,0,8,-1.984375,-5.832031,-11.105469,0.999219165998442,0.0189936349327292,0.0053394392143879,0.0342314259459929
zero,0,8,-2.796875,-5.6875,-11.304688,0.9974748412890728,0.028350902493306,0.0114963060175372,0.0640936991529163
zero,0,8,-7.300781,-5.199219,-11.632812,0.9961535768529532,0.0304335016521993,0.0149264468717154,0.0808025648357707
zero,0,8,-9.273438,-4.488281,-11.464844,0.9943512531916464,0.0311659958586385,0.0179619784956425,0.099858065807742
zero,0,8,-14.179688,-4.8125,-4.585938,0.9847098890734448,0.0231990399380525,0.0107768548020505,0.1723139527359634
zero,0,8,-14.109375,-6.058594,-1.996094,0.9792867269688564,0.0144916968634071,-6.137097471115471e-05,0.2019591377933846
zero,0,8,-12.222656,-9.613281,4.195312,-0.9730076015787776,-0.0025815683963275,0.0128260668808077,-0.2304018983925682
zero,0,8,-12.527344,-9.703125,6.210938,-0.9656296066072416,0.0133062708490309,0.0259644146738588,-0.2582794129819103
zero,0,8,-12.78125,-8.910156,7.164062,-0.9580857401784856,0.0317425712305138,0.035836518771348,-0.2824533015573899
zero,0,8,-12.78125,-8.910156,7.164062,-0.9415126223969972,0.0765105757476902,0.0449746968155504,-0.325080590488321
zero,0,8,-11.183594,-10.996094,15.445312,-0.933683531547713,0.0980975121817174,0.0463233895004351,-0.341271277146993
zero,0,8,-10.222656,-10.265625,17.378906,-0.9259641845628988,0.1207399655589419,0.0478091731777151,-0.3545792895582799
zero,0,8,-5.097656,-9.554688,21.011719,-0.9110415986535038,0.1717176887899658,0.0486430704048789,-0.3716854753431814
zero,0,8,-3.835938,-9.324219,22.15625,-0.8961632245107151,0.2312511450037422,0.0411049974712879,-0.3764634937837945
zero,0,8,-2.675781,-9.402344,21.886719,-0.8892278562344466,0.2608097087246071,0.0360397664655202,-0.3741032621680638
zero,0,8,-2.675781,-9.402344,21.886719,-0.8818653868783678,0.2927117580795685,0.030941875816136,-0.368342050856013
zero,0,8,0.699219,-10.78125,20.964844,-0.8744653413611863,0.3253794953642309,0.025826872572165,-0.3588474932443079
zero,0,8,2.691406,-10.570312,20.011719,-0.8676952193278484,0.3556301168208114,0.0206076836917856,-0.3467096043354902
zero,0,8,6.546875,-10.125,18.277344,-0.8609398011446147,0.3859291647350608,0.0140021787023427,-0.3311272830854581
zero,0,8,6.546875,-10.125,18.277344,-0.854024389330168,0.416067614083383,0.0054773360170571,-0.3122500307931943
zero,0,8,7.816406,-9.414062,15.507812,-0.8407395987726648,0.4687685729617672,-0.0142356432859847,-0.2705740167111414
zero,0,8,8.4375,-6.964844,10.261719,-0.8337759705737988,0.4932481471266112,-0.0247042308213423,-0.2468068014245358
zero,0,8,8.28125,-6.964844,8.207031,-0.8265307981951351,0.5162180864968064,-0.0350272325540564,-0.2216727763801695
zero,0,8,8.210938,-6.476562,6.296875,-0.8191348329407976,0.5372056112533808,-0.0449940933522031,-0.1959688451370428
zero,0,8,8.222656,-4.339844,3.539062,-0.8112621384268909,0.5568787449894809,-0.0546671647190858,-0.1695621043616329
zero,0,8,7.847656,-4.144531,2.726562,-0.8029343704367138,0.575216367875675,-0.0638528220529391,-0.1426371060250102
zero,0,8,7.355469,-4.023438,2.160156,-0.794857288387771,0.5909544913458618,-0.0715630085805371,-0.1177005355038601
zero,0,8,7.355469,-4.023438,2.160156,-0.7863053494619721,0.6059140538717176,-0.0782567279409272,-0.0920214173994679
zero,0,8,6.8125,-3.257812,1.53125,-0.7777621164966722,0.6195645864606161,-0.0830188231647008,-0.0658307553264493
zero,0,8,9.160156,-3.792969,1.484375,-0.7636226496670939,0.6396551215061616,-0.0863701852833454,-0.016185349562639
zero,0,8,11.398438,-3.269531,0.65625,-0.7531330637215607,0.6512905096821627,-0.0866739629160327,0.033149426537337
zero,0,8,10.941406,-3.074219,0.101562,-0.7495933627885143,0.6537973349136221,-0.0875632534905881,0.0546947160281048
zero,0,8,9.730469,-3.128906,-0.09375,-0.7468469184210033,0.6547788925553274,-0.0890933416044767,0.0744758940249696
zero,0,8,7.230469,-3.054688,-0.167969,-0.7450818436338932,0.6543805888529095,-0.0906514129375595,0.0917682545985395
zero,0,8,1.308594,-4.132812,-0.171875,-0.7445376931638572,0.6522713723784506,-0.091134713393441,0.1090877823061316
zero,0,8,-1.640625,-6.257812,-0.457031,-0.7462840038212865,0.6472005677977122,-0.0893722433870024,0.1272957689586078
zero,0,8,-0.402344,-7.335938,-1.183594,-0.7570903786303464,0.6274850666918296,-0.0812438182850612,0.1627147554912366
zero,0,8,5.175781,-11.023438,-3.164062,-0.7715322542009994,0.602004990017316,-0.0767474104126528,0.1908868977083745
zero,0,8,2.042969,-11.097656,-3.597656,-0.7786711215200421,0.5892026222782197,-0.0778423137332906,0.2011271453678916
zero,0,8,0.726562,-11.242188,-3.625,-0.7860121076770746,0.5760120916247831,-0.0801555748109765,0.2096905355847211
zero,0,8,-0.230469,-11.511719,-3.632812,-0.7932956328638605,0.5628949044405454,-0.0829068027375945,0.2166975484259706
zero,0,8,-0.820312,-11.667969,-3.605469,-0.8010045189276285,0.548913641539966,-0.0855611176637815,0.2230804113609631
zero,0,8,-1.285156,-11.144531,-3.855469,-0.8085386470134704,0.5350907270066791,-0.0876259629646151,0.2286150930529617
zero,0,8,-1.128906,-10.925781,-4.277344,-0.8164345166212764,0.5204441221622644,-0.0889860449291413,0.233782119897997
zero,0,8,-0.941406,-10.789062,-4.621094,-0.8238735419849209,0.5065121452997241,-0.0896711175869638,0.2379851343084201
zero,0,8,-0.941406,-10.789062,-4.621094,-0.8321404474479478,0.4909678431233143,-0.0898118455433506,0.2417161251138766
zero,0,8,-0.675781,-8.78125,-4.960938,-0.8547199158759949,0.4480746736210985,-0.0875603082007344,0.2470144625160046
zero,0,8,-0.632812,-8.308594,-4.871094,-0.8625511138811086,0.4330730915631495,-0.0858113648702445,0.2471632718781257
zero,0,8,-0.53125,-7.328125,-4.777344,-0.8703117524538522,0.4181276788778468,-0.0840054537013831,0.2463123655957076
zero,0,8,-0.46875,-6.792969,-4.488281,-0.8774735654354714,0.4041754642332145,-0.0823189619700644,0.2447568682876909
zero,0,8,-0.402344,-6.507812,-4.273438,-0.8850576941074852,0.389309355941507,-0.0806510665393011,0.2420878124640382
zero,0,8,-0.515625,-6.324219,-4.304688,-0.8920383299407055,0.375438230526859,-0.0794111161753381,0.2387627014490431
zero,0,8,-1.039062,-5.589844,-4.574219,-0.8993806506731821,0.3606353983209699,-0.078492319623264,0.2342979095782084
zero,0,8,-1.023438,-5.191406,-4.671875,-0.90633222354352,0.3464051159704646,-0.0778091238161735,0.2291530851791156
zero,0,8,-1.109375,-4.625,-4.707031,-0.9127450029805236,0.3330653207283191,-0.0771015979722282,0.2236501626477269
zero,0,8,-1.445312,-4.109375,-4.890625,-0.9258537395220182,0.3053279802607935,-0.0737033834616597,0.2100892399654555
zero,0,8,-3.480469,-2.367188,-4.527344,-0.9320638954231004,0.2920289334365096,-0.0704045004223751,0.2025319806966939
zero,0,8,-3.480469,-2.367188,-4.527344,-0.9380648899286088,0.2790443820280503,-0.066049604667263,0.1944375088945244
zero,0,8,-3.179688,-1.5625,-3.574219,-0.9437766097099246,0.266586840068426,-0.0609256757368699,0.1857558335632503
zero,0,8,-3.023438,-1.652344,-2.925781,-0.9491114097690412,0.254836156940925,-0.0557391338983552,0.1764630667138728
zero,0,8,-3.144531,-1.949219,-2.023438,-0.9539760565807482,0.24390952637618,-0.0510737174455681,0.1668211671218104
zero,0,8,-3.988281,-2.441406,0.011719,-0.958133304257464,0.2343374456286344,-0.0477085888430429,0.1574497488074411
zero,0,8,-3.988281,-2.441406,0.011719,-0.9621481689365616,0.2246210991168028,-0.0455677126121095,0.1474443841279876
zero,0,8,-4.382812,-2.355469,0.699219,-0.9656551449011288,0.2156011602436699,-0.0449187873914162,0.1378716191492944
zero,0,8,-5.335938,-2.011719,1.648438,-0.9736412213445887,0.1916983287075777,-0.0473487546617099,0.1141604936101991
zero,0,8,-5.570312,-1.894531,1.585938,-0.9756000638999032,0.1848984375284053,-0.0480126535282915,0.108221385221368
zero,0,8,-6.089844,-1.5625,1.71875,-0.9771197562585296,0.1793956480623883,-0.0480472119900766,0.1036612213198746
zero,0,8,-7.328125,-0.757812,2.980469,-0.9783905392296168,0.1746758355440586,-0.0472914394688252,0.1000191230511985
zero,0,8,-7.042969,0.402344,3.90625,-0.9803695668209624,0.1672902319674898,-0.0436695582372987,0.0947758430345058
zero,0,8,-6.316406,0.648438,3.996094,-0.9811177642945526,0.1644243110621826,-0.0418740431189077,0.0928393398848864
zero,0,8,-4.085938,0.917969,3.207031,-0.9817210159226674,0.1620626295628242,-0.0409105682000744,0.0910267894880178
zero,0,8,-2.367188,1.664062,1.835938,-0.9823096419851022,0.1596197213823909,-0.0422222684964473,0.0883549197946677
zero,0,8,-2.683594,1.335938,1.484375,-0.9824282891513249,0.1591305928916338,-0.0437393077660496,0.0871721517303832
zero,0,9,-10.222656,-6.664062,-8.195312,1.0,-8.673617379884035e-19,-6.884683795282953e-18,0.0
zero,0,9,-10.222656,-6.664062,-8.195312,0.9987207954780296,0.0087089571289575,-0.0021006680681017,0.0497645851899256
zero,0,9,-13.226562,-6.734375,-6.761719,0.9950276100245063,0.0125702684124263,-0.0026505746228592,0.0987674951344163
zero,0,9,-13.871094,-6.964844,-5.558594,0.9921337268093564,0.0129275726176733,-0.0022920173333077,0.124492138908993
zero,0,9,-13.226562,-6.746094,-3.890625,0.984465912145532,0.0095714958233399,0.0020305682178835,0.1753029694097675
zero,0,9,-13.019531,-6.6875,-0.933594,0.979889411319268,0.0056457951793769,0.0063485723094123,0.1993603827514462
zero,0,9,-13.988281,-5.710938,2.179688,0.9744253186115246,-0.0002172047141676,0.0122044617577694,0.22437981723886
zero,0,9,-14.695312,-4.898438,3.445312,-0.9685119322366632,0.0075541618254269,-0.0186084016607265,-0.2481557961079159
zero,0,9,-15.175781,-5.402344,4.917969,-0.9621817811990556,0.0163900927764447,-0.0250697388772701,-0.2707565197368616
zero,0,9,-15.175781,-5.402344,4.917969,-0.9551706715337758,0.0267260471489226,-0.0317638411624264,-0.2931309690908102
zero,0,9,-14.3125,-6.308594,8.125,-0.9476386128927072,0.0385319499421743,-0.0383829211552928,-0.3146793599078693
zero,0,9,-14.042969,-6.070312,9.84375,-0.939662679682178,0.0522282456893838,-0.0449384378963919,-0.335092219492112
zero,0,9,-13.378906,-6.160156,12.539062,-0.9314279939820814,0.06791244919041,-0.0511471415003775,-0.3538555654328697
zero,0,9,-12.21875,-6.738281,14.257812,-0.9232709388783564,0.0847824473392135,-0.0568186790108849,-0.3703435536921219
zero,0,9,-7.753906,-8.015625,19.25,-0.9068173262147008,0.1229907100315365,-0.068746015277452,-0.3972777460495768
zero,0,9,-6.195312,-8.425781,20.285156,-0.8987183571125248,0.1441401713147646,-0.0759663947518738,-0.4071339244901079
zero,0,9,-4.804688,-8.59375,20.800781,-0.8838586904313148,0.1876343782710428,-0.094698929642579,-0.4178747039058841
zero,0,9,-3.773438,-8.644531,21.476562,-0.8776463082563045,0.2082430035033959,-0.1058092456465941,-0.418540574653955
zero,0,9,-1.726562,-9.175781,23.890625,-0.8714870699819263,0.2304860792350743,-0.1190641248981318,-0.4161852812094659
zero,0,9,-0.511719,-9.859375,24.464844,-0.8662335749002765,0.2514079316598938,-0.13256020920279,-0.410927288641304
zero,0,9,0.3125,-10.109375,24.742188,-0.8614120557551495,0.2730424981583554,-0.1470039652668498,-0.402252282274389
zero,0,9,0.746094,-10.234375,24.886719,-0.8567394854556383,0.2958304668618827,-0.1623378741763289,-0.3900361567155014
zero,0,9,1.433594,-10.59375,23.503906,-0.8524375251573637,0.3179970077086605,-0.1771458681744566,-0.3752965629747293
zero,0,9,1.667969,-10.625,22.375,-0.8483216604865459,0.3401085624571118,-0.191090752017603,-0.3579956013501469
zero,0,9,1.316406,-11.160156,18.570312,-0.8442784268951389,0.3625684575665628,-0.2038613340691506,-0.3379032523205709
zero,0,9,1.515625,-11.042969,16.746094,-0.8403124408483093,0.3845553955586414,-0.2150082638951205,-0.3158537572344198
zero,0,9,1.96875,-10.859375,14.882812,-0.8360523744227814,0.4073170292390435,-0.2253552284850163,-0.2903864423632337
zero,0,9,2.300781,-10.902344,13.476562,-0.8315347068755723,0.429690304786466,-0.2345123954047035,-0.2625265884351869
zero,0,9,3.648438,-10.070312,10.609375,-0.8273234273320172,0.4482796250639771,-0.2416702745449784,-0.2370164609082229
zero,0,9,4.203125,-9.492188,8.9375,-0.8223052977343814,0.4673593445215708,-0.248883540771015,-0.2084375770815337
zero,0,9,4.574219,-8.941406,7.753906,-0.816608204261944,0.4855246464362238,-0.2557952532315162,-0.1788453154524531
zero,0,9,4.753906,-8.609375,6.949219,-0.8105634522563866,0.5020235869130955,-0.261862236363549,-0.1496241197661625
zero,0,9,4.304688,-7.804688,5.472656,-0.804533018317166,0.5165974154353599,-0.2665357641765228,-0.1217062825733079
zero,0,9,3.65625,-7.355469,3.71875,-0.7931644955656438,0.5419414686323862,-0.2703712428129897,-0.063944652711775
zero,0,9,4.988281,-7.226562,2.453125,-0.7885261933879916,0.5520025824217707,-0.2688134677345238,-0.0354811344982126
zero,0,9,4.691406,-7.347656,0.703125,-0.7815826266034588,0.5660958136923324,-0.2612129336330425,0.0207829452790998
zero,0,9,4.058594,-7.339844,-0.53125,-0.7787326791756298,0.5706338525208461,-0.2560423555243051,0.0489360084061647
zero,0,9,1.832031,-7.3125,-1.867188,-0.7745610601212426,0.574187011259694,-0.2465475040269574,0.0978711832083084
zero,0,9,1.105469,-7.402344,-1.878906,-0.7744016737091407,0.5720912757732339,-0.2412611093915181,0.1216827721405502
zero,0,9,4.195312,-7.492188,-3.410156,-0.7783781629167994,0.5606627746843806,-0.2315136647550653,0.1618212334928849
zero,0,9,4.40625,-7.867188,-3.960938,-0.7845667024863808,0.5435124394593427,-0.2259364268991835,0.1949411411237527
zero,0,9,4.257812,-8.351562,-4.546875,-0.788149605001488,0.533577236206418,-0.2256838943061604,0.2078035442169475
zero,0,9,3.214844,-8.640625,-5.453125,-0.7922292378103959,0.5227204264672538,-0.2264635146739347,0.2187474960628804
zero,0,9,2.609375,-8.730469,-5.726562,-0.7971473512713088,0.5104119676871797,-0.2276423866881914,0.2285052896231114
zero,0,9,1.605469,-9.140625,-5.964844,-0.8030769453677521,0.4965653850410943,-0.2284124902156734,0.2373140798841596
zero,0,9,1.191406,-9.496094,-6.332031,-0.8097088519140877,0.4818581475887407,-0.2284297334055814,0.2449574608591714
zero,0,9,1.054688,-9.21875,-6.375,-0.8165539180686827,0.4671613018186078,-0.2277809889531036,0.2512286568872522
zero,0,9,1.097656,-8.78125,-6.144531,-0.8245119683366295,0.4503883946057249,-0.226432975732553,0.2570183175865791
zero,0,9,1.222656,-8.582031,-6.316406,-0.840864138267854,0.4162885294602834,-0.2230426560428902,0.26439238793919
zero,0,9,1.277344,-8.628906,-6.722656,-0.8487491641299951,0.3995870561500865,-0.2220158270095057,0.2658270368176028
zero,0,9,1.25,-8.460938,-6.988281,-0.8643453248841253,0.3656503347700669,-0.2223935949872442,0.2640986197278274
zero,0,9,0.046875,-7.886719,-6.933594,-0.8782606729140165,0.3337216263673331,-0.2257731766962542,0.2575160950151322
zero,0,9,-0.730469,-7.550781,-6.644531,-0.8849375181345818,0.3180324549245463,-0.2276589727699553,0.2528088976476139
zero,0,9,-1.613281,-7.089844,-6.429688,-0.8917370740341041,0.3020382125271139,-0.2288713485557736,0.2473778785113622
zero,0,9,-3.265625,-5.878906,-5.816406,-0.898199709727552,0.2869587387353747,-0.2291106448929087,0.2416614907375599
zero,0,9,-3.582031,-4.464844,-5.023438,-0.916989656319744,0.2435023808858498,-0.2260254602331335,0.2207918749227885
zero,0,9,-3.339844,-4.152344,-4.535156,-0.9224086614343402,0.2306013763805221,-0.2252351784962413,0.2127307709055838
zero,0,9,-3.324219,-3.886719,-4.078125,-0.926918948830823,0.2193244666026309,-0.2254332650429188,0.2046897253403861
zero,0,9,-3.472656,-3.824219,-3.703125,-0.931085136493518,0.2082096282972228,-0.2267040550843759,0.1957919576833515
zero,0,9,-4.160156,-3.085938,-2.910156,-0.934607819108709,0.1979686452265586,-0.2290271868435309,0.1867168649441233
zero,0,9,-4.546875,-2.503906,-2.640625,-0.9374415686687296,0.188905495764613,-0.2320282907289578,0.1779912674915137
zero,0,9,-4.941406,-1.925781,-2.261719,-0.939719268743931,0.1811004212339343,-0.2350938338505154,0.1698859107334373
zero,0,9,-6.335938,-0.957031,-1.191406,-0.9417413917499023,0.1737303171863395,-0.2381703155141238,0.1619130283923845
zero,0,9,-6.054688,-0.191406,-0.539062,-0.9455233726549837,0.1597891561544261,-0.2427122841104611,0.1467778064984075
zero,0,9,-5.265625,0.539062,0.101562,-0.947308190020452,0.1535228548690101,-0.2437331334585953,0.1401145453102512
zero,0,9,-4.710938,0.792969,0.507812,-0.948957210178095,0.1478259506789422,-0.2443048688903075,0.1339508588750494
zero,0,9,-4.710938,0.792969,0.507812,-0.9504011610598604,0.1426062314405856,-0.2448169327261067,0.1283189980515927
zero,0,9,-4.125,1.019531,1.464844,-0.9515470395689132,0.1379988132438228,-0.2456085934081145,0.1232516850798448
zero,0,9,-4.125,1.019531,1.464844,-0.9523396451860656,0.1342389204752991,-0.2467904155998635,0.1188427667321476
zero,0,9,-4.246094,1.25,1.898438,-0.9534217504030288,0.1280377330540668,-0.2494072044266084,0.1113074622516573
zero,0,9,-4.34375,1.535156,1.777344,-0.9539141397854336,0.1254017164543825,-0.2502731865365811,0.1080997480502913
zero,0,9,-3.335938,1.039062,1.722656,-0.9553141058701288,0.1200977167118204,-0.2504570859891943,0.101107594393127
zero,0,9,-3.015625,0.957031,1.667969,-0.9556680327868728,0.1190752253884094,-0.2502293337292181,0.0995237778091241
zero,0,10,-18.25,-13.207031,-8.992188,1.0,0.0,6.938893903907228e-18,2.775557561562892e-17
zero,0,10,-21.617188,-16.21875,-3.964844,0.999485393453175,-0.0014748519257135,-0.0045028246540606,0.0317253472114019
zero,0,10,-22.085938,-15.886719,-2.644531,0.997877184886651,-0.0064353590207749,-0.0089327571288172,0.0641865709244841
zero,0,10,-21.199219,-14.257812,-1.605469,0.9951676855313282,-0.014310360063836,-0.0121780236145129,0.0963752406477268
zero,0,10,-16.480469,-11.042969,1.925781,0.991654520924664,-0.0237781930934919,-0.013487178964546,0.1259920817609659
zero,0,10,-14.371094,-8.855469,3.765625,0.9876595847917732,-0.0341686271730945,-0.0123532485065185,0.152343187367813
zero,0,10,-13.015625,-6.25,5.660156,0.9827668670135082,-0.0467182520555128,-0.0080152952284098,0.1786685340728253
zero,0,10,-13.277344,-2.285156,11.824219,0.9650620489122304,-0.0905576355996064,0.0152199397843396,0.2454035652082051
zero,0,10,-12.910156,-1.703125,14.023438,0.9578190984914208,-0.1082724557779863,0.0232110514334904,0.2651808759624973
zero,0,10,-12.234375,-1.617188,16.484375,0.9496393853562304,-0.1284956888611795,0.03057729257098,0.2841459570420814
zero,0,10,-11.433594,-1.886719,18.410156,0.9416075594550926,-0.1488752152360296,0.0364259442302359,0.2998074796471661
zero,0,10,-5.9375,-4.457031,22.253906,0.93326599173903,-0.1708861080708596,0.0415392361453104,0.3131884713590578
zero,0,10,-5.9375,-4.457031,22.253906,0.9250962389999964,-0.1933239998891215,0.0468502594609005,0.3234622587619439
zero,0,10,-3.667969,-5.871094,22.777344,0.9176260625462934,-0.2149712291582284,0.0529892659710826,0.3300635054983091
zero,0,10,0.394531,-7.914062,24.761719,0.909969679841272,-0.2386218182967991,0.0611213272149605,0.3335850610590711
zero,0,10,0.394531,-7.914062,24.761719,0.9032897159639958,-0.2610054991695955,0.0698367898172244,0.333266621828438
zero,0,10,0.980469,-7.707031,24.894531,0.8970177341564881,-0.2840522270432047,0.0793710987400379,0.3292016792262074
zero,0,10,1.398438,-7.195312,24.632812,0.8913185351241785,-0.3072970522846007,0.0883731509647628,0.3214186939022734
zero,0,10,2.371094,-7.75,24.226562,0.8861837760286227,-0.330791068550096,0.0962914326612221,0.3098121109110921
zero,0,10,3.175781,-8.597656,23.679688,0.881582923079033,-0.3540197611445492,0.1033162237659402,0.2946308136657308
zero,0,10,5.242188,-9.160156,21.09375,0.8773052274564892,-0.3762461696391674,0.1098353688275187,0.276966693780851
zero,0,10,5.242188,-9.160156,21.09375,0.8731674567861298,-0.397356474597545,0.1162831371587226,0.257224914262943
zero,0,10,6.441406,-9.90625,13.945312,0.8640821499210036,-0.4388562932945338,0.1296366816166135,0.2096700331547434
zero,0,10,6.234375,-8.679688,10.003906,0.8592949402698902,-0.4572805682527193,0.1356520583162147,0.1846759502469399
zero,0,10,6.292969,-7.941406,7.910156,0.8541030506248425,-0.4748996856331439,0.1411579985681369,0.1582804060492537
zero,0,10,6.34375,-7.289062,5.964844,0.8482363057185011,-0.4920377987341632,0.1464120319209801,0.1302209322138289
zero,0,10,6.53125,-6.59375,4.347656,0.835532787754696,-0.5211576268447932,0.1558395053191268,0.0774192298480121
zero,0,10,5.082031,-4.414062,1.289062,0.8282849929861915,-0.5344428110126692,0.16021470508232,0.0514402607509534
zero,0,10,4.640625,-4.230469,0.820312,0.8204880391894092,-0.5470751207014978,0.1638707855092547,0.0255842825410465
zero,0,10,4.496094,-4.085938,0.632812,0.8055641347252798,-0.5677947569009747,0.167885681214979,-0.0221345188124038
zero,0,10,4.261719,-3.515625,0.378906,0.7987179227781995,-0.5760599471294856,0.1677706698331738,-0.0453609908377317
zero,0,10,3.96875,-4.003906,-0.652344,0.7930864801693533,-0.5821862774671821,0.1661041339876947,-0.0669506532730569
zero,0,10,0.59375,-3.839844,-2.144531,0.776369040103232,-0.5927958731862399,0.1543308618052003,-0.1484120999009624
zero,0,10,-1.890625,-5.136719,-1.515625,0.7736747551170639,-0.5926262632571254,0.1505350246827459,-0.1660141311341072
zero,0,10,-1.484375,-5.683594,-1.808594,0.772770271169943,-0.5895750167660536,0.1444920528470712,-0.1853360576500954
zero,0,10,0.148438,-5.910156,-2.519531,0.7740647421057113,-0.5835765510572989,0.137302396954202,-0.2034950512310237
zero,0,10,2.351562,-6.375,-3.058594,0.7768320551030415,-0.5749507210313126,0.129775065444834,-0.2216349677707638
zero,0,10,5.265625,-7.191406,-3.582031,0.7803405806675128,-0.5647692359408876,0.1235753952838122,-0.2383975880303421
zero,0,10,5.300781,-7.585938,-3.613281,0.7839093524252276,-0.5545126130934008,0.1203240038218432,-0.2520397254499176
zero,0,10,4.632812,-7.972656,-3.769531,0.7876339159516568,-0.5441450075996589,0.1200586667944071,-0.2629162255825514
zero,0,10,1.824219,-8.179688,-4.117188,0.8013201092080762,-0.5100868408207745,0.131461030854852,-0.2835762591734688
zero,0,10,-0.65625,-8.546875,-4.398438,0.8066180303177665,-0.4977815988325426,0.136505406066671,-0.2880053942977066
zero,0,10,-2.222656,-8.105469,-4.550781,0.8122958201559795,-0.4849236620774078,0.1408446359615718,-0.2918686880009791
zero,0,10,-2.261719,-7.5625,-4.625,0.8255914298149277,-0.4563328109016891,0.145358358248024,-0.298379128623544
zero,0,10,-1.890625,-7.160156,-4.785156,0.8329167154071259,-0.4413079937820217,0.1453217447343865,-0.3006303217023285
zero,0,10,-0.308594,-6.414062,-5.066406,0.8405132379139667,-0.4259721283163484,0.1446320232703458,-0.3019384384833203
zero,0,10,0.039062,-6.261719,-5.074219,0.8484123935286209,-0.4101764633219246,0.143901066056001,-0.3020664871045793
zero,0,10,-0.792969,-4.992188,-4.613281,0.869303141811619,-0.3688008806466873,0.1461372277055681,-0.294859065909812
zero,0,10,-1.316406,-4.59375,-4.40625,0.8759329984520511,-0.355773323035685,0.1480782147589512,-0.2902405332698163
zero,0,10,-1.949219,-4.257812,-4.332031,0.8821632484775526,-0.3436453572394213,0.1499135529316068,-0.2849943826301574
zero,0,10,-2.574219,-3.835938,-4.1875,0.8880098625709297,-0.3323979426263848,0.151243456042789,-0.2794199504665654
zero,0,10,-4.027344,-2.886719,-3.636719,0.8939262684403488,-0.3212002436133517,0.1518764600853457,-0.2732394022958271
zero,0,10,-4.917969,-2.300781,-3.238281,0.9001622137243428,-0.3095413325125613,0.1515194085365819,-0.2663344162626428
zero,0,10,-4.917969,-2.300781,-3.238281,0.905926596933006,-0.2989392662014183,0.1501560789276294,-0.2595871107228167
zero,0,10,-4.429688,-1.347656,-2.050781,0.92117909699843,-0.2713374592478709,0.1442228656531152,-0.2387568208132928
zero,0,10,-4.417969,-0.9375,-0.449219,0.9252825272892614,-0.2639284791015303,0.1429035379947507,-0.2318891576614419
zero,0,10,-4.699219,-0.304688,0.097656,0.9321447306195596,-0.2513076209157971,0.1425243861330407,-0.2182601205104377
zero,0,10,-4.765625,0.117188,0.296875,0.9373359129136192,-0.2412701488333111,0.1436026007269741,-0.2063210961312322
zero,0,10,-4.027344,0.734375,0.523438,0.9398618893743508,-0.2361666277714257,0.1440073052742054,-0.2003667858114464
zero,0,10,-3.574219,0.734375,0.554688,0.9419757439039684,-0.2318042532860716,0.1441882622246391,-0.195341319468489
zero,0,10,-3.171875,0.789062,0.582031,0.9438602047866,-0.2278119472078837,0.1442524314767485,-0.1908425176489658
zero,0,10,-2.628906,0.890625,0.964844,0.9456309738642964,-0.2239978285773332,0.1443261071167622,-0.1864859481720353
zero,0,10,-2.460938,0.761719,1.15625,0.9471642572359672,-0.2206157124566999,0.1444859454269181,-0.1825715991219623
zero,0,10,-2.460938,0.761719,1.15625,0.9484608728125274,-0.2176393399376699,0.1447174917204358,-0.1791980414104453
zero,0,10,-2.257812,0.777344,1.414062,0.9515057328096632,-0.2101187738987959,0.1456278450021549,-0.1711124543849465
zero,0,10,-1.390625,0.902344,1.214844,0.9529533244452963,-0.2063388754307258,0.1459708088584669,-0.1673223023862805
zero,0,10,-1.257812,0.851562,1.199219,0.9535205092841422,-0.2048103184934857,0.1460616929543159,-0.1658835545327694
zero,0,11,5.320312,-6.050781,9.652344,1.0,0.0,6.938893903907228e-18,1.3877787807814457e-17
zero,0,11,5.21875,-5.800781,8.339844,0.9996367550557614,-0.0199901183206712,-0.0077292935718019,-0.0163404752683046
zero,0,11,5.003906,-5.039062,6.285156,0.9985925113615588,-0.0386891526507549,-0.015119871514441,-0.0329777986707511
zero,0,11,5.003906,-5.039062,6.285156,0.9968388063391092,-0.0567980843209744,-0.0229033162603619,-0.0506143250292351
zero,0,11,4.960938,-3.488281,4.277344,0.994337864167828,-0.074409660967757,-0.0315788306142144,-0.0689796469537524
zero,0,11,4.960938,-3.488281,4.277344,0.9912914635592762,-0.0901568833721276,-0.0404334041779033,-0.0870523433442142
zero,0,11,5.273438,-3.050781,2.597656,0.9838928326702252,-0.1167476219555851,-0.0586340499892203,-0.1220120271519877
zero,0,11,5.480469,-3.898438,1.585938,0.9796719441721304,-0.1276873920599107,-0.0679605992789948,-0.1389970095238626
zero,0,11,5.722656,-4.125,1.464844,0.9704446505473948,-0.1447068210445233,-0.0861732724992031,-0.1728331081532446
zero,0,11,6.992188,-4.023438,0.234375,0.9656933530363844,-0.150785700674125,-0.0940846147443908,-0.1893359597170008
zero,0,11,7.042969,-4.113281,0.226562,0.9609029369732998,-0.1552266668073086,-0.1008273160545405,-0.2059225096127598
zero,0,11,6.304688,-4.699219,0.535156,0.956349470164069,-0.1579335931701825,-0.1061964871797695,-0.2217543171528724
zero,0,11,5.445312,-5.492188,0.542969,0.9519036082431211,-0.1591406330668834,-0.1103438475267014,-0.2374405501042355
zero,0,11,4.398438,-6.003906,0.285156,0.9475939124440071,-0.1585811500284888,-0.1136077276367375,-0.2530041109862016
zero,0,11,3.570312,-6.1875,-0.292969,0.943291448310301,-0.1558734489609289,-0.1166757505186189,-0.2688707509094223
zero,0,11,3.382812,-6.546875,-1.535156,0.9393630938689382,-0.1511219327141693,-0.11949477882006,-0.2836902133744753
zero,0,11,4.398438,-7.5,-2.722656,0.927817638679614,-0.1234022712186606,-0.1258491298621216,-0.3287678593263158
zero,0,11,4.628906,-8.003906,-3.328125,0.9241835400731704,-0.1112431627497624,-0.1256104068315428,-0.3431206328609037
zero,0,11,3.808594,-8.308594,-3.804688,0.9208356167796968,-0.0988276644425378,-0.124145888339623,-0.3562059208086725
zero,0,11,3.378906,-8.351562,-4.027344,0.9176508680027076,-0.0856329258359167,-0.121545326801632,-0.3685249245293217
zero,0,11,2.984375,-8.539062,-4.253906,0.9147886215956872,-0.0724819312108484,-0.1179647592424307,-0.379463388252258
zero,0,11,1.773438,-8.476562,-4.527344,0.9120614213463004,-0.0590404426835406,-0.1136061131987488,-0.389553386409836
zero,0,11,1.070312,-8.433594,-4.539062,0.9094389300359812,-0.0447512423351901,-0.1088527512181354,-0.3988348497770844
zero,0,11,0.628906,-8.300781,-4.636719,0.9069085428462772,-0.0293507868145538,-0.1040521969184313,-0.4072205379671528
zero,0,11,0.527344,-6.832031,-5.980469,0.9009838241961138,0.0184400671497207,-0.0898031896567145,-0.4240560099655943
zero,0,11,0.308594,-6.6875,-5.882812,0.8996379751556209,0.034319725226174,-0.0846895043652148,-0.4269676310549414
zero,0,11,-0.371094,-6.175781,-5.492188,0.8986104550259568,0.0491480579322572,-0.0796190011824796,-0.4286543282998957
zero,0,11,-0.972656,-5.75,-5.453125,0.8978335920699628,0.0643090432144404,-0.0741897938629453,-0.429249417469802
zero,0,11,-1.613281,-5.152344,-5.390625,0.8973312495792185,0.0790183491153963,-0.0687459893839165,-0.4287501813122671
zero,0,11,-2.980469,-4.300781,-4.734375,0.8970985466812781,0.0935881274042454,-0.0633855346362953,-0.4271273041496835
zero,0,11,-3.445312,-3.808594,-4.589844,0.8971082241500539,0.1079260735815408,-0.058554805632976,-0.4244056214765458
zero,0,11,-3.742188,-3.5625,-4.644531,0.8973181992585773,0.1218724464993095,-0.0544765655270031,-0.42071303744001
zero,0,11,-3.785156,-3.378906,-4.542969,0.8977798632802341,0.1353107534272867,-0.0508816099839373,-0.4160449240898232
zero,0,11,-3.800781,-2.910156,-3.007812,0.8993442137763691,0.160974962408443,-0.0439186319535301,-0.4041512098112477
zero,0,11,-4.109375,-2.84375,-2.296875,0.9013716707889194,0.1823452486906177,-0.0364463432370663,-0.3910894852125205
zero,0,11,-4.597656,-2.886719,-1.601562,0.9023634539939674,0.1907799508484737,-0.0326589354791215,-0.3850670086929043
zero,0,11,-6.320312,-2.253906,-0.515625,0.903976416776349,0.2039576090571638,-0.0252086248084638,-0.3749566066295456
zero,0,11,-6.171875,-0.765625,0.476562,0.9045908211616256,0.2103355329707235,-0.0214189895825027,-0.3701562328602914
zero,0,11,-6.171875,-0.765625,0.476562,0.9049750887571624,0.2159310245110134,-0.0183535720458882,-0.366137990074434
zero,0,11,-3.777344,0.296875,0.78125,0.905337233987839,0.2293545926121331,-0.0099213148462979,-0.3572989380262584
zero,0,11,-3.226562,1.070312,0.867188,0.9053283355195888,0.2326376693200048,-0.0068019032450182,-0.3552661732151434
zero,0,11,-2.726562,1.585938,1.140625,0.9053043062739126,0.2354731743388812,-0.0038754834433255,-0.3534989078296581
zero,0,11,-2.523438,1.59375,1.308594,0.905257419994628,0.2379338228013469,-0.0011347843999433,-0.3519875165061578
zero,0,11,-2.316406,1.550781,1.378906,0.9052141204233228,0.2401460015313299,0.0012435255095963,-0.350593422327133
zero,0,11,-2.164062,1.542969,1.363281,0.9051595742147792,0.2422494044216954,0.0033591204006889,-0.349270794047809
zero,0,11,-1.894531,1.421875,1.347656,0.9051347899454544,0.2441341868668292,0.0050103496387116,-0.3480005850997497
zero,0,11,-1.632812,1.222656,1.453125,0.905049679925888,0.2460892311040164,0.006472771591545,-0.346818786152949
zero,0,11,-0.957031,0.863281,1.4375,0.9047731318653298,0.2497958439221845,0.008892649338951,-0.3448311717370412
zero,0,11,-0.703125,0.648438,1.039062,0.9042018629933258,0.2538980633110549,0.011806017022889,-0.3432424542045313
zero,0,11,-0.832031,0.617188,0.953125,0.9040438613282022,0.2550469734320583,0.0123010046308315,-0.3427891821849305
zero,0,11,0.160156,-15.339844,-3.433594,1.0,-5.551115123125783e-17,-6.938893903907228e-18,0.0
zero,0,11,-0.683594,-15.695312,-3.964844,0.9992085064489372,0.0388243059609845,0.0025625090269395,0.0082745062824977
zero,0,11,-2.851562,-16.429688,-4.640625,0.9969472680259964,0.0761398085202069,0.0048168009842924,0.0166033961070004
zero,0,11,-3.683594,-16.546875,-5.554688,0.9930370365303908,0.1147220843586443,0.0075692659447235,0.0256708716721042
zero,0,11,-4.203125,-16.835938,-6.636719,0.9875153216520324,0.1531059339080991,0.0110673777541526,0.0353493373949083
zero,0,11,-4.992188,-17.839844,-8.027344,0.9806450982147464,0.1898281517166777,0.0149557614797776,0.0455718044604401
zero,0,11,-5.320312,-18.34375,-8.503906,0.9725602847141872,0.2248727274792661,0.0192337377269872,0.0564695702634985
zero,0,11,-6.90625,-18.492188,-9.027344,0.9628694407760636,0.2599445727273194,0.0235956531266421,0.0689529135187839
zero,0,11,-9.441406,-18.226562,-10.121094,0.9526430762057694,0.2914419741319563,0.0271515118428757,0.0824350682411497
zero,0,11,-20.25,-11.796875,-10.949219,0.9225343219323684,0.3605384424942587,0.0250891604034396,0.1353254978592352
zero,0,11,-20.25,-11.796875,-10.949219,0.9124545076539624,0.3764211356084017,0.0168677248740818,0.1595286180809537
zero,0,11,-13.445312,-9.75,-9.535156,-0.9020881764364436,-0.3890090623266158,-0.0053590872566641,-0.1867622861958873
zero,0,11,-13.445312,-9.75,-9.535156,-0.8913040306707661,-0.3985926813034878,0.007100832444495,-0.2159874475517909
zero,0,11,-10.859375,-9.574219,-9.707031,-0.8813894416898129,-0.4049126228919809,0.0165897895592377,-0.2427410117446915
zero,0,11,-8.355469,-7.605469,-9.449219,-0.8727933631824529,-0.4087782011441531,0.0217267751453745,-0.2658196281236502
zero,0,11,-8.355469,-7.605469,-9.449219,-0.8645077337010105,-0.4109599493632931,0.0231137339790488,-0.2884511287757565
zero,0,11,-10.367188,-6.539062,-6.882812,-0.8569547601973007,-0.4111824049492883,0.02182756611519,-0.3099695568806612
zero,0,11,-14.472656,-5.515625,0.953125,-0.8348532561253292,-0.3958598134754247,0.0181990448780269,-0.3820783212610534
zero,0,11,-12.613281,-6.296875,1.492188,-0.8281149479450886,-0.3862878561891533,0.0175494591843237,-0.4058316666218014
zero,0,11,-11.171875,-6.578125,2.742188,-0.8215508467128361,-0.3742499810150861,0.0148776039538179,-0.4298485952939979
zero,0,11,-10.644531,-7.933594,6.980469,-0.811974329111185,-0.3466533183835425,0.0009473333561825,-0.4696043742104959
zero,0,11,-11.074219,-8.492188,12.117188,-0.8088792541689727,-0.3299723766256849,-0.0100666347351104,-0.4865503526914286
zero,0,11,-11.074219,-8.492188,12.117188,0.8069782464797391,0.3124263900428029,0.0218445452457345,0.5006981888885909
zero,0,11,-10.140625,-8.339844,16.171875,0.8064574955144337,0.29428436187754,0.0333980067077704,0.5117690840905339
zero,0,11,-9.332031,-8.496094,19.203125,0.8097458422797388,0.2490396709632003,0.0592474707441115,0.5279968280280127
zero,0,11,-7.785156,-9.4375,21.261719,0.8130998372355974,0.2254157743686559,0.0717401622112552,0.5318925948714899
zero,0,11,-6.710938,-8.867188,21.597656,0.8231264962814675,0.1723496975983251,0.0986111759431768,0.5320095758877513
zero,0,11,-5.664062,-7.929688,21.917969,0.8293409893439915,0.1442021293339234,0.1118981901029079,0.5280890685681586
zero,0,11,-4.792969,-7.5,22.140625,0.8359495828157365,0.1159812885417672,0.1239082078170392,0.5219036230320276
zero,0,11,-1.753906,-6.121094,20.226562,0.8430264759331293,0.0873252112771564,0.1346823536532411,0.5133627683866375
zero,0,11,-0.59375,-6.425781,19.242188,0.850365907064587,0.05887027905345,0.1444778011172927,0.5025318689702207
zero,0,11,-0.59375,-6.425781,19.242188,0.8578498881715338,0.0306456389744238,0.1534600976648528,0.4894940373494145
zero,0,11,3.144531,-6.003906,12.339844,0.8812857437438375,-0.0569609635062529,0.1736090636736358,0.4358334309351154
zero,0,11,4.085938,-5.542969,9.203125,0.8882900945682289,-0.083622479487042,0.1774447988184641,0.4152846399623769
zero,0,11,4.476562,-5.28125,7.824219,0.9014651110048424,-0.136427010322421,0.1819236480946617,0.3683098026925737
zero,0,11,5.253906,-4.964844,4.855469,0.906830277116696,-0.160183713118504,0.1834134894558549,0.344034182083194
zero,0,11,5.789062,-4.820312,2.484375,0.9111451801658788,-0.1815364685394921,0.1850569387065501,0.320332484595706
zero,0,11,5.960938,-5.074219,1.894531,0.9173379844049574,-0.2201614602903968,0.1893738639627816,0.2723187349751315
zero,0,11,6.101562,-4.765625,1.347656,0.9194146854717916,-0.2373706916084531,0.1912563156961223,0.248501132010452
zero,0,11,5.835938,-5.183594,0.046875,0.9220339198308984,-0.2789298314186307,0.1959447547346219,0.1834591314653791
zero,0,11,5.304688,-5.132812,-0.503906,0.92210563548133,-0.2899721910639118,0.1974521539418309,0.1632481924154089
zero,0,11,4.207031,-5.269531,-0.175781,0.9222734538686984,-0.2993769098751444,0.1980922691123557,0.1433338586679001
zero,0,11,3.734375,-5.445312,-0.203125,0.9228856451376716,-0.3070050877848095,0.1973597669459849,0.1227969236751964
zero,0,11,4.164062,-5.746094,-0.945312,0.9239910094126628,-0.3117836156365337,0.19537432666935,0.1042135500963134
zero,0,11,5.125,-5.8125,-1.511719,0.9255759549277072,-0.3143360895976856,0.1925173863405468,0.0862498138705427
zero,0,11,5.125,-5.8125,-1.511719,0.9273530523128426,-0.3149033312123198,0.1896481281371533,0.0698984681628441
zero,0,11,5.214844,-6.078125,-1.617188,0.9294732301702676,-0.313739221675343,0.1866805888565084,0.052892087532882
zero,0,11,4.765625,-6.226562,-1.78125,0.9315339453066616,-0.3110600371079089,0.1845302082433538,0.0378782827157799
zero,0,11,4.105469,-6.875,-1.722656,0.9336829994399928,-0.3065575888981739,0.18356970504766,0.0236783579327545
zero,0,11,3.851562,-7.066406,-1.691406,0.9359922314121912,-0.3001560679950996,0.1836436576675905,0.0099942273446653
zero,0,11,3.636719,-6.871094,-1.867188,0.938136895107827,-0.2929604003854459,0.1845814762947069,-0.0017459817615874
zero,0,11,2.570312,-6.597656,-2.742188,0.9424702019361813,-0.2751103343621707,0.1885575254686598,-0.0225894218306722
zero,0,11,1.929688,-6.59375,-2.695312,0.9446360500127796,-0.2650867784746499,0.1907813578912241,-0.0315310382855731
zero,0,11,1.929688,-6.59375,-2.695312,0.9469969607468216,-0.2540275925118931,0.1925318059587789,-0.0399780223766213
zero,0,11,1.292969,-6.476562,-2.632812,0.9496797376328372,-0.2415919819240475,0.1934477610279807,-0.0481629936039839
zero,0,11,0.390625,-6.328125,-2.683594,0.9524021942289004,-0.2293290237976165,0.1931549198640997,-0.0550403143550365
zero,0,11,0.585938,-5.242188,-3.898438,0.9585239313542132,-0.2022654693225447,0.189450315075613,-0.0665517171735284
zero,0,11,0.648438,-4.898438,-4.261719,0.961590781091252,-0.1884631838081014,0.1865742261020767,-0.0708156495673161
zero,0,11,0.632812,-4.433594,-4.5,0.9675772667789454,-0.1594352518863001,0.1804371497875945,-0.0762697072569882
zero,0,11,0.664062,-4.214844,-4.464844,0.970011345008052,-0.1462390314246677,0.1781165628718042,-0.0772439400495554
zero,0,11,-0.25,-3.636719,-3.851562,0.9741902504125566,-0.119809657649484,0.1752738452100608,-0.0766686449620278
zero,0,11,-1.234375,-4.105469,-3.238281,0.9760218443060588,-0.1063921447528829,0.1743400630287607,-0.075283553286283
zero,0,11,-3.105469,-3.417969,-3.117188,0.9790941728363948,-0.0834691093520092,0.1711233075771621,-0.0715843705402937
zero,0,11,-3.878906,-2.5625,-3.007812,0.984043685083469,-0.0505678812687981,0.1586512745435716,-0.062695201706603
zero,0,11,-3.625,-2.324219,-2.976562,0.9855868649506628,-0.0404946969757183,0.153267499868775,-0.059057468939529
zero,0,11,-2.933594,-2.199219,-2.6875,0.9869731210743412,-0.0308711727622216,0.1478887389751657,-0.0553168134783105
zero,0,11,-1.5625,-2.367188,-2.050781,0.9881229914265162,-0.0217259272328146,0.1431295882258622,-0.0515253226528735
zero,0,11,-1.09375,-2.390625,-1.882812,0.9890757100339196,-0.0123413204898263,0.1390023542680448,-0.0474897582369724
zero,0,11,-0.925781,-2.328125,-1.675781,0.989607845695372,-0.0047580203590224,0.1367935924963358,-0.0440588927729051
zero,0,11,-1.238281,-2.199219,-1.472656,0.989906854912683,0.0025449894133241,0.1357543628616201,-0.0406041203549818
zero,0,11,-2.390625,-1.785156,-1.265625,0.9901602628239292,0.0151679842329449,0.1348222691846429,-0.0342861766702045
zero,0,11,-3.117188,-1.246094,-1.160156,0.9904712744924852,0.0253585418481727,0.1322896115759848,-0.02868897749383
zero,0,11,-3.011719,-0.527344,-0.867188,0.9907361207712556,0.0300803067339907,0.1298761909068625,-0.0258706239089206
zero,0,11,-2.296875,-0.28125,-0.554688,0.9912955191404174,0.0383386105211331,0.1242248514254527,-0.0207733233682856
zero,0,11,-1.867188,-0.304688,-0.339844,0.9914846110361314,0.0415919860611508,0.1219684457973409,-0.0187635552015468
zero,0,11,-1.40625,-0.28125,-0.011719,0.9915829908205828,0.0446434223614562,0.1203472723739851,-0.0169313669650818
zero,0,11,-1.355469,-0.1875,0.097656,0.9915822346117954,0.0472323258366446,0.1195449393883122,-0.0155816194596012
zero,0,11,-1.539062,-0.019531,0.15625,0.9915194925525987,0.049621309865663,0.1192165168766068,-0.0146370625216498
zero,0,11,-1.628906,0.113281,0.195312,0.9914125077604976,0.0520599413041619,0.1191650979815575,-0.01380874326266
zero,0,11,-1.691406,0.457031,-0.082031,0.9911699400747334,0.0560654867672535,0.1194765077769546,-0.0128130860928848
zero,0,11,-1.550781,0.511719,-0.082031,0.9910471452033336,0.0577149126206536,0.119745933163425,-0.0124682130368906
zero,0,12,-3.554688,-9.273438,-9.277344,1.0,0.0,0.0,0.0
zero,0,12,-9.816406,-12.792969,-7.171875,0.9980160278776044,0.0407557145366289,-0.0030094558919862,0.0478949162986202
zero,0,12,-10.730469,-13.949219,-6.171875,0.9955560279287464,0.0578956684844137,-0.0071323974923809,0.0739284500817542
zero,0,12,-13.242188,-15.003906,-5.335938,0.987727952463838,0.0860944227474253,-0.0178684815095608,0.12908121343528
zero,0,12,-13.242188,-15.003906,-5.335938,0.9825302378352948,0.0964881833274264,-0.0225870431672794,0.1575251970271783
zero,0,12,-16.617188,-11.933594,-5.59375,0.9653106891344848,0.1086747574903605,-0.0223331201846215,0.2363605345017159
zero,0,12,-18.738281,-10.363281,-2.800781,0.959374396406376,0.1070188667560986,-0.018549803648102,0.2603913102673723
zero,0,12,-18.730469,-5.136719,3.660156,0.9458581901082374,0.0960471898276136,-0.0106016369703443,0.3098625934586764
zero,0,12,-17.582031,-4.046875,5.847656,0.9386075166733736,0.087208530102697,-0.0074412695676093,0.3336993099015822
zero,0,12,-16.929688,-3.59375,7.65625,0.9230533230387648,0.0638732116410313,0.0001964353994584,0.3793319615783618
zero,0,12,-16.515625,-4.347656,11.207031,0.9061810922360232,0.0328601210883893,0.0110832514460061,0.4214655407662282
zero,0,12,-14.972656,-4.953125,14.015625,0.8894916357000568,-0.0044413787377097,0.0236264748666653,0.4563186319447416
zero,0,12,-14.972656,-4.953125,14.015625,-0.8810827001518933,0.027166699946794,-0.0303393331711176,-0.4712056565553744
zero,0,12,-13.601562,-6.910156,18.296875,-0.8735460392358843,0.0510562408027605,-0.0365767232673492,-0.4826724779034049
zero,0,12,-8.40625,-8.402344,22.371094,-0.8612569402218512,0.1040243503916691,-0.0485944416912691,-0.4950292897213252
zero,0,12,-6.804688,-8.984375,23.039062,-0.8566831215778217,0.1317173637007269,-0.0547639428286845,-0.4957272192136179
zero,0,12,-5.101562,-8.976562,23.980469,-0.8531355761012277,0.1602696244013604,-0.0608864344076912,-0.4927130791746765
zero,0,12,-1.511719,-10.457031,24.109375,-0.8505759121410981,0.1900360014010841,-0.0662959657263539,-0.4858104370896495
zero,0,12,-0.023438,-11.351562,23.328125,-0.8489235591066057,0.2206903093632868,-0.0710299976330836,-0.4749519108111411
zero,0,12,1.378906,-12.28125,22.082031,-0.8480798519118886,0.2519484253627381,-0.0751360990909368,-0.4600403486127523
zero,0,12,3.898438,-12.488281,19.253906,-0.847836985009497,0.2820600534429202,-0.0787612555035025,-0.4420534331201317
zero,0,12,3.898438,-12.488281,19.253906,-0.8479297662948673,0.3115051643201106,-0.0820956572504028,-0.42099874951555
zero,0,12,6.570312,-13.375,16.6875,-0.8482334986400644,0.3699948977889802,-0.0896173703035345,-0.3682016218525344
zero,0,12,9.097656,-10.6875,9.40625,-0.8470383969638862,0.4197782575173814,-0.1011902808329649,-0.3099559575963442
zero,0,12,8.832031,-9.710938,8.125,-0.8428754783082837,0.4616472440362985,-0.1178078698252251,-0.2501280790865255
zero,0,12,6.445312,-6.765625,4.363281,-0.8394577483594701,0.4795824222149911,-0.1270944604500213,-0.2217169076650866
zero,0,12,6.445312,-6.765625,4.363281,-0.8352098811905646,0.4960043172289433,-0.1362611933527308,-0.1945175026520298
zero,0,12,5.742188,-6.066406,3.648438,-0.8300850877028684,0.5120236055908199,-0.1449766945301536,-0.1666503301353118
zero,0,12,4.828125,-6.089844,3.050781,-0.8246028014407405,0.5266801323384653,-0.1517911654511747,-0.1399917859982988
zero,0,12,3.683594,-6.734375,1.582031,-0.8194123425104224,0.5394367436248837,-0.1563261519696856,-0.1146016875064
zero,0,12,4.261719,-7.277344,1.371094,-0.810609990786329,0.5601374137674161,-0.1585082019292789,-0.0635033105946875
zero,0,12,4.984375,-7.082031,-0.878906,-0.8073931062198456,0.56728158350958,-0.157341201799513,-0.0393919186612865
zero,0,12,4.386719,-7.210938,-1.28125,-0.804343354360595,0.5731685954603661,-0.1558379071378164,-0.0149691740868637
zero,0,12,3.601562,-7.230469,-1.601562,-0.801937226196115,0.5770756250169853,-0.1543828120794756,0.0068084937078786
zero,0,12,3.035156,-7.648438,-1.789062,-0.8005503867789194,0.578854000974843,-0.152382242851305,0.0287537101457329
zero,0,12,4.257812,-8.550781,-2.308594,-0.8009871182322119,0.5775877660829629,-0.149547437655388,0.0494729500642217
zero,0,12,4.257812,-8.550781,-2.308594,-0.8035129125254433,0.5729670643309823,-0.14592694902268,0.0691452684263147
zero,0,12,6.5625,-10.039062,-3.195312,-0.8078216853117308,0.5652413727494319,-0.1423383514477987,0.0875563189014682
zero,0,12,6.5625,-10.039062,-3.195312,-0.8133137763293675,0.5551298450345865,-0.1397821391282564,0.1039832196340757
zero,0,12,7.4375,-11.996094,-4.0625,-0.8347596800338009,0.5127534829381944,-0.1422066417528521,0.1415535706578719
zero,0,12,5.097656,-13.054688,-5.308594,-0.8522561964858871,0.4758150980374734,-0.148491930720173,0.1587750438261437
zero,0,12,4.875,-13.566406,-5.5625,-0.8615227106261298,0.4557000007081394,-0.1512336919227752,0.1650590768707204
zero,0,12,4.847656,-14.015625,-6.046875,-0.8707542040347827,0.4352831874757896,-0.1533205727879144,0.1697305653577291
zero,0,12,4.597656,-14.257812,-6.628906,-0.880378039366628,0.4135597050368181,-0.1549364444283503,0.1729091563762103
zero,0,12,4.34375,-13.664062,-7.453125,-0.8904049459398466,0.3903679039641254,-0.1561649750738026,0.1743686679444236
zero,0,12,3.707031,-13.382812,-7.972656,-0.9201794747600962,0.3163538378838246,-0.1594432042272385,0.1666368750071823
zero,0,12,3.335938,-13.4375,-7.980469,-0.9297598509167148,0.2898315350301115,-0.1611989693089879,0.1598724279515941
zero,0,12,1.804688,-13.050781,-7.730469,-0.9384601090017172,0.2639865353136984,-0.1631715958927077,0.1515874773171628
zero,0,12,-0.601562,-12.488281,-7.800781,-0.9538911870219284,0.2126057393166083,-0.1668270428304879,0.1306106454771934
zero,0,12,-3.0625,-11.542969,-8.824219,-0.9666167256395866,0.1621011351500358,-0.1684145850359248,0.1049373872556935
zero,0,12,-4.765625,-10.617188,-9.347656,-0.9721765303786128,0.1364248172439267,-0.1679875194770571,0.0896730523675252
zero,0,12,-4.765625,-10.617188,-9.347656,-0.9769351003207508,0.1125031688946317,-0.1658658480992693,0.0736842397277775
zero,0,12,-5.941406,-9.933594,-9.238281,-0.9811859583271226,0.0895421083716153,-0.1615194803204606,0.0562830657219388
zero,0,12,-10.175781,-9.984375,-5.082031,-0.987748412149116,0.0484611057604597,-0.1471765523378742,0.0185380141145337
zero,0,12,-11.207031,-9.050781,-3.957031,-0.9908570709557376,0.0161150203361447,-0.1325646386106589,-0.0192142563376032
zero,0,12,-11.882812,-8.238281,-3.371094,-0.991169022373562,0.0029776377867275,-0.1270929987269092,-0.0377156788995043
zero,0,12,-12.402344,-6.945312,-2.070312,-0.9906973115312458,-0.0091513763333313,-0.1233243757306667,-0.0567995386126381
zero,0,12,-12.453125,-5.503906,-0.878906,-0.9896780956169916,-0.0184001784570106,-0.1217146157228628,-0.0733774679865051
zero,0,12,-12.429688,-3.628906,0.8125,-0.9883536251034418,-0.0254821468564642,-0.1210636697884022,-0.0886078991616177
zero,0,12,-13.753906,1.796875,7.632812,0.9839327114147088,0.0371458323268801,0.1106881922362142,0.1350730567075518
zero,0,12,-9.679688,2.207031,8.640625,0.9832522148436176,0.0374104688604858,0.1062786388718891,0.1432493970119844
zero,0,12,-6.234375,1.875,8.871094,0.9826234033227564,0.0370032076635611,0.1033900539597918,0.1496412597086851
zero,0,12,-6.234375,1.875,8.871094,0.9820951556549729,0.0361203396703781,0.1024715470524898,0.153896095940737
zero,0,12,-4.449219,2.179688,7.125,0.9815712798715044,0.0346005153392156,0.1034966380549063,0.1568727917167579
zero,0,12,-3.988281,2.363281,6.320312,0.9811135058965736,0.0327969401001926,0.1056755054068171,0.1586610753285508
zero,0,12,-3.988281,2.363281,6.320312,0.9806739503070676,0.0309782899373493,0.1084356572658548,0.1598770057732206
zero,0,12,-3.027344,2.945312,5.371094,0.980294263721268,0.029314325149048,0.1110251659909689,0.1607396633470116
zero,0,12,-3.027344,2.945312,5.371094,0.9799532111248388,0.0276553374202195,0.1131687951263103,0.1616159340162646
zero,0,12,-1.1875,2.3125,4.019531,-0.979380291590082,-0.0249428417231241,-0.1159755529708597,-0.1635291111845354
zero,0,12,-0.167969,1.40625,3.292969,-0.9791157535324466,-0.0237837128828244,-0.117167752342637,-0.1644335549608751
zero,0,13,-11.171875,-10.421875,-12.363281,1.0,0.0,3.0357660829594124e-18,0.0
zero,0,13,-12.390625,-11.0625,-11.769531,0.9995943034686596,0.0077030774100174,-0.0102252058443927,0.0254428032429612
zero,0,13,-15.050781,-11.714844,-10.882812,0.9957159303293324,0.0170146384022968,-0.0334961764214505,0.0844884272168346
zero,0,13,-16.28125,-9.921875,-9.125,0.9879384988820178,0.0184757779387732,-0.0534611343124492,0.1441460203208149
zero,0,13,-15.457031,-10.371094,-6.882812,0.9824786165027556,0.0164371769228271,-0.0606721118348476,0.1754550716711793
zero,0,13,-15.53125,-9.820312,-4.4375,0.9763129853534608,0.0125794288407221,-0.0646754018643094,0.2060868870014404
zero,0,13,-15.53125,-9.820312,-4.4375,0.9691716897738978,0.0071207008441318,-0.0656886909588517,0.237361595967857
zero,0,13,-15.363281,-8.917969,-2.039062,0.961287109672511,0.0002552181479208,-0.0642553823048452,0.2679519984736537
zero,0,13,-15.691406,-6.578125,1.390625,-0.9527474624164586,0.0785221457073907,0.0428618650704379,-0.2902919323976982
zero,0,13,-17.269531,-6.652344,4.980469,-0.9398039153640808,0.1304239787613261,0.0315563770557638,-0.3142648270130199
zero,0,13,-17.269531,-6.652344,4.980469,-0.9257578910243152,0.1699239278646753,0.0262755082667787,-0.3367607215970641
zero,0,13,-17.222656,-7.894531,11.632812,-0.896011974914779,0.2205013201163332,0.0312982947698231,-0.3841381592354147
zero,0,13,-13.691406,-8.300781,14.71875,-0.881525832153286,0.2384452681764808,0.036733957495316,-0.4058407048306457
zero,0,13,-8.792969,-9.917969,17.933594,-0.8673037939825263,0.25713737122519,0.0402576030458394,-0.4243157157823854
zero,0,13,-6.753906,-10.238281,19.402344,-0.8533404471950535,0.276350724057618,0.0409615505882426,-0.4401846315663273
zero,0,13,-5.179688,-10.339844,20.390625,-0.8401521459666345,0.2955203581657065,0.0383208552447072,-0.4531485425228529
zero,0,13,-4.488281,-10.3125,22.417969,-0.8278211850488155,0.3147572427917793,0.0327393304092314,-0.4632149608322757
zero,0,13,-4.429688,-10.03125,23.085938,-0.8153024427973716,0.3360824933260712,0.0244064722816628,-0.4708872567389506
zero,0,13,-4.101562,-10.042969,23.476562,-0.8036037636811956,0.3580848881255031,0.0148508833078215,-0.475158557913609
zero,0,13,1.105469,-12.242188,24.128906,-0.7633757906675019,0.4546765093607673,-0.0275574283601413,-0.4580035613403568
zero,0,13,2.625,-12.902344,23.902344,-0.7553316098205505,0.4794718098199974,-0.0386845814180051,-0.4450667881951491
zero,0,13,3.992188,-13.457031,23.289062,-0.7479769905536375,0.5040176568774466,-0.0502293072375789,-0.4289214844846609
zero,0,13,6.207031,-13.355469,21.492188,-0.7407068900418249,0.5295305990907786,-0.0633879943883116,-0.4085738731717392
zero,0,13,7.265625,-13.054688,20.484375,-0.7339961179880744,0.5540521190486356,-0.0769412807216646,-0.3851700760405241
zero,0,13,8.179688,-12.78125,19.1875,-0.7278984567749828,0.5764988418544578,-0.0904108149464625,-0.3600538938906006
zero,0,13,9.734375,-11.644531,15.367188,-0.7222333855438481,0.5967697297650258,-0.1042831775624218,-0.3337212089746974
zero,0,13,10.253906,-11.117188,13.128906,-0.7163307709383178,0.6160761368285399,-0.1198597309295164,-0.3048836911657318
zero,0,13,9.089844,-7.976562,5.894531,-0.6984865219991546,0.6600877763924944,-0.1674408958612431,-0.2199187405291356
zero,0,13,8.757812,-7.386719,4.707031,-0.6925136957097201,0.670959565405665,-0.1821363221169045,-0.1925211754868372
zero,0,13,8.027344,-6.914062,3.769531,-0.686933867586661,0.6800914825943823,-0.1951677718730629,-0.1658522767016196
zero,0,13,6.839844,-6.113281,1.609375,-0.6818570094691739,0.6880763963145557,-0.2065488282816878,-0.1376934021948447
zero,0,13,6.8125,-6.359375,0.347656,-0.6782129811864713,0.6941361365412877,-0.2151715438781092,-0.1091026250958482
zero,0,13,6.605469,-5.976562,-1.390625,-0.6762440422547839,0.6979980347625702,-0.220881323289423,-0.081879055957023
zero,0,13,6.605469,-5.976562,-1.390625,-0.6752571067325526,0.700377465718037,-0.2248420033207446,-0.0542707919997136
zero,0,13,6.214844,-4.933594,-3.058594,-0.6753917193978578,0.7010288881685275,-0.2274366641878044,-0.0260208974696795
zero,0,13,5.671875,-4.871094,-3.507812,-0.6769053289786027,0.6996841838425344,-0.2285631827403369,0.0002999609704753
zero,0,13,6.082031,-7.171875,-3.585938,-0.6914952316195164,0.6817741544898847,-0.2291282571549568,0.0672204484528782
zero,0,13,6.507812,-8.183594,-4.421875,-0.6996317638624829,0.6713021032027112,-0.2296132030134014,0.0845379100298437
zero,0,13,6.921875,-9.066406,-6.746094,-0.7190232336157537,0.6450214712699572,-0.2338399202019387,0.1107780792460127
zero,0,13,4.875,-9.679688,-7.59375,-0.7292289354591408,0.6306226341758506,-0.2373287378598339,0.1192280300101349
zero,0,13,3.128906,-9.914062,-7.453125,-0.7395968316708667,0.6158466783947804,-0.2410034369848631,0.125086924392659
zero,0,13,-0.550781,-9.292969,-8.058594,-0.7984129953209326,0.5311121750809726,-0.2529469052230208,0.1283526763317024
zero,0,13,-1.144531,-8.851562,-7.917969,-0.8104414035664472,0.5134394887274487,-0.2532178630345089,0.1242792687489741
zero,0,13,-1.707031,-8.085938,-7.527344,-0.8216906238313163,0.4967484228331374,-0.2528509701110155,0.1188777104187792
zero,0,13,-1.707031,-8.085938,-7.527344,-0.8322170739024529,0.4809154054255458,-0.2520045446858019,0.1123780413929866
zero,0,13,-2.0,-7.742188,-7.207031,-0.8428159178410773,0.4646962460367801,-0.2507737406191505,0.104073332650134
zero,0,13,-2.902344,-6.847656,-6.753906,-0.8523970540153873,0.4497018047690774,-0.2493596149849415,0.0949069623783467
zero,0,13,-3.1875,-6.179688,-6.441406,-0.8613979562248253,0.4353129120151146,-0.2477134152965312,0.0844647472425215
zero,0,13,-5.640625,-4.0,-4.410156,-0.8843305853140917,0.3981151552749161,-0.2388456216077013,0.0491579907776531
zero,0,13,-5.972656,-3.804688,-3.722656,-0.8908390245098232,0.3878712697667458,-0.2336892052609794,0.0367568475853217
zero,0,13,-6.867188,-2.949219,-2.15625,-0.8968644704426847,0.378692170292066,-0.2272376983393521,0.0242773612750915
zero,0,13,-7.152344,-2.417969,-1.054688,-0.902391883485686,0.3706128115403947,-0.2195166540111791,0.0121437701318861
zero,0,13,-7.203125,-2.03125,0.070312,-0.9074024705304546,0.3636578497922892,-0.2106500897299547,0.0005142532823101
zero,0,13,-7.296875,-1.730469,1.101562,-0.911727754897904,0.3579753917889427,-0.2012661950633702,-0.0099014416674434
zero,0,13,-7.183594,-1.289062,2.890625,-0.9187609996349178,0.3489589133479826,-0.1826737048052427,-0.027133372764344
zero,0,13,-6.722656,-1.039062,3.351562,-0.9218491929758552,0.3445101158397646,-0.1740946154576349,-0.0346108416900665
zero,0,13,-2.976562,-0.804688,3.355469,-0.9284738863610204,0.3303738439144223,-0.1618733051187389,-0.0508566484621998
zero,0,13,-2.617188,-0.589844,3.09375,-0.929904303555476,0.325350359522827,-0.1625437250066396,-0.0548148451456194
zero,0,13,-2.5,-0.550781,2.609375,-0.9310198140576824,0.3205823888592963,-0.1645620073019613,-0.0578652187243308
zero,0,13,-2.589844,-0.410156,1.445312,-0.931986758500781,0.3156630928826027,-0.1676173856585555,-0.0605136827171111
zero,0,13,-2.710938,-0.21875,1.015625,-0.932811734945136,0.3111435799533654,-0.1706690166244829,-0.062642051106909
zero,0,13,-2.984375,0.441406,0.550781,-0.9336138553484076,0.3070378775628993,-0.1730817224680229,-0.0643088500181328
zero,0,13,-2.984375,0.441406,0.550781,-0.934388815686072,0.3033981654874784,-0.1747409968076251,-0.0658230835975475
zero,0,13,-2.199219,0.601562,0.511719,-0.9351239784116508,0.3002113501462426,-0.175772472940841,-0.067233384558551
zero,0,13,-2.199219,0.601562,0.511719,-0.9357463578519032,0.2975881011014452,-0.1763958268019893,-0.0685900002666289
zero,0,13,-1.179688,0.488281,0.035156,-0.9363070109729574,0.2944296771376878,-0.1776731322714568,-0.0712222190916041
zero,0,13,-1.40625,0.464844,-0.078125,-0.9362971484642512,0.2936571595728292,-0.1784460223275416,-0.0725957266291077
one,1,1,-4.25,-11.296875,-9.429688,1.0,0.0,6.938893903907228e-18,0.0
one,1,1,-4.894531,-13.210938,-6.34375,0.998920051273621,0.0005137168032957,0.0170076550814877,0.0432343257976954
one,1,1,-5.523438,-13.355469,-4.402344,0.9899303234873156,0.0040005960547417,0.0557267931363121,0.1300633476358655
one,1,1,-6.464844,-13.15625,-2.136719,0.9821692699317124,0.0072250166654354,0.0739352357545468,0.1726988860702665
one,1,1,-8.949219,-10.027344,3.179688,0.960312702631728,0.0156751709174933,0.09845260910711,0.260501220612988
one,1,1,-5.828125,-9.847656,5.414062,0.947490641926336,0.0199250864230406,0.102461253440336,0.3022683674096407
one,1,1,-5.828125,-9.847656,5.414062,0.9332815800402164,0.0238789739607832,0.1027009869014646,0.3433187939068914
one,1,1,-3.136719,-22.039062,14.660156,0.8902308475235337,0.0295386115721216,0.1021421433380357,0.4429260560163904
one,1,1,-3.703125,-16.828125,22.652344,0.8681759914867462,0.0311405727776144,0.1040091585413598,0.4842342485539467
one,1,1,-0.679688,-11.925781,21.867188,0.8593096620637838,0.0325152725024008,0.1047174322622454,0.4995637307874966
one,1,1,-0.679688,-11.925781,21.867188,0.8520019134848016,0.0347651779357315,0.1068396805657456,0.511340790938825
one,1,1,1.300781,-6.671875,16.09375,0.8397032503383803,0.0432644722436072,0.119937408957229,0.5278651861462998
one,1,1,0.558594,-5.496094,14.78125,0.8342138531235158,0.0490529814920919,0.1303207466545293,0.5335705719536638
one,1,1,-3.265625,-2.496094,12.785156,0.8246563116861335,0.058513018204465,0.1501956834657734,0.5421802753375263
one,1,1,-3.875,-2.21875,12.023438,0.82069872110306,0.0610092246754923,0.1577275208836202,0.5457595742084643
one,1,1,-3.433594,-1.742188,10.253906,0.8175546174320438,0.0617374315895323,0.1628300519706731,0.5488891611532333
one,1,1,-1.117188,-1.15625,8.441406,0.8151513072705014,0.0612538506791948,0.165868795401539,0.5516011736247536
one,1,1,0.03125,-1.042969,7.445312,0.8133930990447842,0.0602121153154301,0.1674812512804626,0.5538196439862834
one,1,1,1.003906,-0.789062,6.632812,0.8120991531623948,0.0590706809486228,0.1686393474871107,0.5554875251203297
one,1,1,1.496094,-0.265625,5.960938,0.8111447279119717,0.0581737774804674,0.1700019237671943,0.5565603183031642
one,1,1,1.035156,0.132812,5.140625,0.8100692152417442,0.0566673964362548,0.1742344863803287,0.5569730841383127
one,1,1,0.273438,0.535156,3.761719,0.8101331579191091,0.0551474943935418,0.1774509449651128,0.5560163508684927
one,1,1,0.449219,0.710938,3.292969,0.810908112693726,0.0534936331321597,0.1789932009044089,0.5545519795400745
one,1,1,0.585938,0.742188,2.820312,0.8113953329437481,0.0528035110853283,0.1793971595718076,0.5537743782730769
one,1,1,-6.371094,-10.101562,5.523438,1.0,-5.551115123125783e-17,1.3877787807814457e-17,-6.938893903907228e-18
one,1,1,-6.308594,-10.929688,3.726562,0.9994870204219436,0.0018466506822689,-0.0186891676796211,-0.0259422609031377
one,1,1,-6.589844,-11.914062,-0.316406,0.9980166775082576,0.003468168242706,-0.0349346479688276,-0.0522518286351101
one,1,1,-6.589844,-11.914062,-0.316406,0.9956710823518672,0.0048722737630481,-0.0491406897032251,-0.0787435669253726
one,1,1,-7.792969,-12.601562,-3.425781,0.9922422976993888,0.0064889090808864,-0.0627514341771182,-0.1071231731414457
one,1,1,-5.75,-11.480469,-7.734375,0.9697335490176592,0.0143008043014904,-0.1135442059495887,-0.2156850578997611
one,1,1,-3.851562,-10.921875,-9.902344,0.9539857200328674,0.0194985050810539,-0.1369822306155669,-0.2660205307275347
one,1,1,-2.355469,-11.160156,-11.878906,0.9371318152727632,0.0239598252257324,-0.1555944094670127,-0.3114486592061993
one,1,1,-2.136719,-11.28125,-12.492188,0.928493560270778,0.0257418746350086,-0.1628321829140591,-0.3327502736789449
one,1,1,-2.230469,-12.203125,-13.136719,0.9201566356847934,0.0272556233252146,-0.1682928508052356,-0.3524860467738304
one,1,1,-2.230469,-12.203125,-13.136719,0.9126744951762537,0.0287583178084731,-0.1721036133401328,-0.3695653816131423
one,1,1,-2.265625,-13.53125,-18.433594,0.8887638618713644,0.0365675683182539,-0.1745446734424977,-0.4222508351106486
one,1,1,-1.71875,-13.59375,-19.632812,0.8859060368643235,0.0383180461621332,-0.1716721589723719,-0.4292212611456111
one,1,1,-1.367188,-13.25,-21.613281,0.8847286295349029,0.0393122091743117,-0.1676881480033247,-0.4331171750350507
one,1,1,-1.808594,-13.210938,-22.402344,0.8853732633560486,0.0397380409865754,-0.1628598631682322,-0.4336032029420851
one,1,1,-2.527344,-13.128906,-22.640625,0.8878214561712915,0.0402366112140427,-0.1578340118983126,-0.4303980736109082
one,1,1,-3.40625,-12.074219,-21.726562,0.8919776995876427,0.0417019664909135,-0.1530235693396852,-0.4233444420984761
one,1,1,-3.367188,-11.902344,-21.300781,0.8978513570660319,0.044252203559846,-0.1484547492196761,-0.4121478745898195
one,1,1,-3.367188,-11.902344,-21.300781,0.9051155899392792,0.0476533116189164,-0.144218033109479,-0.39710966957083
one,1,1,-2.953125,-12.917969,-18.273438,0.9341170805679776,0.0621743579846955,-0.1277890816586714,-0.3274592793145169
one,1,1,-2.941406,-13.0625,-17.226562,0.9448989508366736,0.0681310116259069,-0.1198134516096075,-0.2969324414340342
one,1,1,-2.941406,-13.0625,-17.226562,0.9552399820400296,0.0741728834968782,-0.1103322447472536,-0.2642759085405904
one,1,1,-3.214844,-13.578125,-14.367188,0.9749026908177744,0.0871510465389763,-0.0826207271329559,-0.1874653407204819
