Gesture Name,Gesture Number,Sample Number,Acceleration_x,Acceleration_y,Acceleration_z,Rotation_i,Rotation_j,Rotation_k,Rotation_real
zero,0,1,6.878906,-6.820312,-7.261719,1.0,0.0,-2.775557561562892e-17,0.0
zero,0,1,5.968434272727273,-7.579505676767677,-7.8920455252525255,0.9997818693746264,0.016510341494811266,0.0024220781252392984,-0.005862491845982254
zero,0,1,4.956163303030303,-8.37432897979798,-8.653014303030302,0.9993029491519813,0.03299023225788006,0.005373178149513165,-0.011337869801799356
zero,0,1,3.697088242424243,-9.217802818181818,-9.741713515151515,0.9985271510595355,0.049927574238718436,0.008863585830457654,-0.016532231101364078
zero,0,1,1.76408598989899,-10.156289424242424,-11.736347353535352,0.9972769904524265,0.06864676006414808,0.013081352425474538,-0.02161854041879427
zero,0,1,0.7899696161616159,-10.614188616161616,-13.113083757575758,0.9956657091181887,0.08670196156800225,0.017215629793207468,-0.025844143875198605
zero,0,1,0.09114563636363654,-10.983309636363638,-14.266098636363637,0.9937175770175549,0.10507101372183036,0.02133332259211066,-0.029479200197986798
zero,0,1,-0.5378783030303026,-11.38368105050505,-15.31928711111111,0.9914050482916488,0.12407777909649798,0.025437761925660187,-0.03253550815956256
zero,0,1,-1.6052320606060602,-11.969184343434343,-16.946930555555554,0.9885869884278125,0.1432705374454114,0.028984596334076344,-0.03437326643145146
zero,0,1,-1.996094,-12.183594,-17.542969,0.9853689126958233,0.1629872559166534,0.03223822658202668,-0.03521940676660867
zero,0,1,-2.140980363636364,-12.254024828282828,-17.646938424242425,0.981856963751053,0.1827154917221942,0.0351727843525541,-0.0350857918856963
zero,0,1,-2.7460940000000003,-12.54817711111111,-18.081163666666665,0.9781456819589995,0.20151869107099882,0.03763193365400481,-0.03365992394350577
zero,0,1,-4.006983999999999,-12.191288181818182,-18.14607012121212,0.9657088484894587,0.25147325567235845,0.045733957327595755,-0.019542844037864705
zero,0,1,-5.111584757575757,-11.788273858585859,-18.184935040404042,0.9556233419284826,0.2895114995720089,0.05248101013570327,-0.006053556196724522
zero,0,1,-5.8973331919191905,-11.457465737373738,-18.288154757575757,0.9503290990706595,0.30602017772847295,0.056342548068427215,0.0040204267305656355
zero,0,1,-6.987097848484849,-10.841145575757576,-18.618726454545456,0.9446323299345488,0.32175556341940087,0.060651069959429725,0.01720169106674242
zero,0,1,-9.172861676767674,-9.64622787878788,-18.563565353535353,0.9392116517731125,0.3354285299345051,0.06473117937073165,0.0312778572749363
zero,0,1,-11.422743353535353,-8.620660222222222,-18.192984282828284,0.9321158590486258,0.35048973177955794,0.06999414205569499,0.052399225569613544
zero,0,1,-12.316406727272726,-8.867188,-17.498224181818184,0.9200496950716318,0.37223262038589,0.07881360213762893,0.0915515416393051
zero,0,1,-14.567787434343435,-10.926452363636363,-14.94669309090909,0.9130193179841548,0.3817671371587597,0.08409333595881888,0.11536868533087422
zero,0,1,-16.5333015959596,-12.252091303030303,-12.532117555555553,0.8994443773956596,0.3920526729899375,0.09615516140759203,0.1597006491789375
zero,0,1,-17.902935151515152,-12.450165454545456,-10.612925636363636,0.8791230429688627,0.4040961990689041,0.11523106083229578,0.2247338043029566
zero,0,1,-18.51085077777778,-12.184027333333333,-9.268228666666666,0.8714889782397471,0.40543804611817474,0.12427955344796097,0.24593256576570052
zero,0,1,-19.397175,-11.716816474747475,-7.2178421111111115,0.8638129650684202,0.4059675472212111,0.13396777567486678,0.2660912168501506
zero,0,1,-20.05965909090909,-10.930634666666668,-4.728811303030307,0.856103099364774,0.4057502984586394,0.14422849768595217,0.28544969558444105
zero,0,1,-19.89157196969697,-9.599944777777775,-1.9497708989898928,0.8483574752376583,0.4046234708526451,0.1551684440885589,0.30401487904004554
zero,0,1,-19.720959757575756,-8.832386363636363,0.06159273737373905,0.8412351721077445,0.4022563804757924,0.1661692792071596,0.32047644902412953
zero,0,1,-19.87819609090909,-7.8536931818181825,2.753196090909089,0.8341610008697359,0.3987221026525895,0.17775546607764295,0.33672221908772404
zero,0,1,-20.323508272727274,-6.685290424242425,5.961450171717169,0.8271592345601921,0.3939937405445778,0.18985852540067186,0.3528003213454111
zero,0,1,-20.52521281818182,-6.110992939393938,7.387389070707074,0.8208811177288764,0.38775964462863166,0.20160134429062723,0.36744868692143007
zero,0,1,-20.582031,-5.949219,7.789062,0.8151813863737831,0.3803116007472928,0.21292202895541334,0.3812006465664283
zero,0,1,-19.881431252525253,-5.827612191919192,9.497000878787876,0.8078119912639004,0.3642286644273827,0.22983887962419286,0.4010619974885264
zero,0,1,-17.7187102929293,-5.452217262626263,14.769333939393928,0.7964847215343255,0.33111859541962496,0.25878016612753185,0.43440701383272184
zero,0,1,-15.670572666666665,-5.123697666666666,16.973958333333336,0.7938698744671507,0.315723168951546,0.26894867674486345,0.44452881231730845
zero,0,1,-13.788549212121211,-5.188565090909091,18.72877219191919,0.7924597861223271,0.30150414954229965,0.27725782095700047,0.4517617591074094
zero,0,1,-12.137941494949496,-5.595919939393939,20.194563040404038,0.7916474285523265,0.2868153068318389,0.2852123360640354,0.45784283337213655
zero,0,1,-11.064985909090911,-6.0273439090909084,21.049005727272725,0.7915956106769655,0.27013784613626274,0.293319551132685,0.46288095296210763
zero,0,1,-9.97739108080808,-6.285195555555556,21.729876626262627,0.792262986330154,0.2536417422847445,0.30053974083646867,0.46637180218217744
zero,0,1,-8.866082515151515,-6.5186233636363635,22.402106696969696,0.7935488485456836,0.23679035605615012,0.307201845591836,0.46872977941963284
zero,0,1,-7.720288818181819,-6.815577636363636,23.166903636363635,0.7955232979290231,0.21917191933533528,0.31339138121352034,0.4699701702213632
zero,0,1,-5.517360939393933,-8.016729969696971,23.988044414141417,0.7984724945364223,0.20148950240571642,0.3185503466358032,0.4692798870905651
zero,0,1,-3.801254585858584,-8.83321501010101,24.43130529292929,0.8020927522228557,0.18339947095487885,0.3232735936507782,0.46725391754309265
zero,0,1,-1.8546401818181826,-9.529947666666667,24.396544,0.8082732164544889,0.15941637692570773,0.3285057073776981,0.4611386695996394
zero,0,1,3.258009575757568,-11.25564211111111,23.460858666666667,0.8246482020056831,0.10800148422179245,0.33772677211572427,0.4396827655949071
zero,0,1,4.410156,-11.644531,23.25,0.8387679792712254,0.07160939063534767,0.34363186809597734,0.41515825787404076
zero,0,1,5.0195310000000015,-11.78728681818182,22.674715909090907,0.8498226635912814,0.04602489735613017,0.34737006969292794,0.393464541749015
zero,0,1,6.621961555555554,-12.162681747474746,21.16193181818182,0.8569515174096692,0.030930870181148405,0.34914905081707087,0.37783871294930377
zero,0,1,7.4676058484848475,-11.889007686868688,19.63809974747475,0.8640070833451758,0.017235943944464635,0.34978087051535667,0.36144734801790035
zero,0,1,7.984256666666666,-11.770123393939395,18.55160984848485,0.8711052499949324,0.00427313138878067,0.34946943183368023,0.3446621958531371
zero,0,1,8.276238666666666,-11.773358515151514,17.740688131313135,0.8781894039333168,-0.007846073086866965,0.3482152512292402,0.32766081022202365
zero,0,1,8.547979333333334,-11.812578484848485,16.821811868686865,0.8850938026800581,-0.018532535048544633,0.3457284048787303,0.31085532559322826
zero,0,1,8.927675121212122,-11.912523606060606,15.637547636363633,0.8924620574860367,-0.028662894392526006,0.34180665106074426,0.2925932051482575
zero,0,1,9.656565979797982,-11.860321999999998,13.41205061616161,0.8998692562840469,-0.03792999408345907,0.3369578612268685,0.2739604463266905
zero,0,1,10.852036484848487,-11.554923747474746,9.755839898989896,0.9073329386726068,-0.046212079143375995,0.3310643031407087,0.2548213421203457
zero,0,1,11.995028909090909,-10.462357818181818,4.9009237272727315,0.9263524574048067,-0.059212752200016344,0.3102897829914432,0.20154262780121698
zero,0,1,12.033854222222224,-9.699652777777779,2.1901044444444473,0.9393932499428245,-0.0638768690715042,0.2949442885589126,0.1607088179232911
zero,0,1,11.539062,-9.265625,1.109375,0.9474407370323197,-0.0629387191409383,0.2845887661979719,0.13166572260344014
zero,0,1,11.539062,-9.265625,1.109375,0.9509351122083715,-0.060327700281368864,0.2799344217118842,0.11690223827130992
zero,0,1,9.385692515151504,-8.651041666666664,-0.28042125252525874,0.9540697279168138,-0.05651318824332261,0.2756241087848408,0.10231795140653875
zero,0,1,7.5050107979797955,-8.224589646464647,-1.507654343434345,0.9569168810903456,-0.051883403715275764,0.271562021174628,0.08816774597524009
zero,0,1,6.509351090909089,-8.188683696969697,-2.1821728181818196,0.9594703445102102,-0.046476815525553855,0.26773443646980943,0.07458370560090663
zero,0,1,4.78925990909091,-7.846906191919192,-3.3503788484848482,0.9616342793236535,-0.04014809991464873,0.2640088358349583,0.06220299990049974
zero,0,1,3.733467737373738,-7.757417777777778,-4.146504353535352,0.9636015474602803,-0.03331547164190595,0.260186712952046,0.05072783510055348
zero,0,1,2.9925429090909113,-7.7439633636363645,-4.848366727272725,0.9658336493457826,-0.023541156323433777,0.2548942444153057,0.03753385744440824
zero,0,1,2.1156886060606097,-7.550663353535354,-5.868095262626259,0.9691602536787992,-0.005911588902843889,0.2454268836981896,0.017829846652365002
zero,0,1,2.001814909090909,-7.111861141414139,-6.716935070707074,0.9708049897112809,0.005189763728284374,0.23948869664653924,0.00807620796387854
zero,0,1,1.9283849999999993,-6.895833333333334,-7.229166666666667,0.9720692261626613,0.015617239246037536,0.23398721765889496,0.0004347648088276761
zero,0,1,1.7505916060606055,-6.9771538686868695,-7.3753945454545455,0.9732302108736398,0.027299101726043717,0.22795424755702798,-0.006881632139620184
zero,0,1,1.481652212121212,-6.985558404040404,-7.380997090909092,0.9746209812984561,0.04951477721472526,0.21706163868519962,-0.0172184214373135
zero,0,1,0.8301373030303035,-6.624644636363636,-7.488872606060607,0.9753709579403006,0.07207317341115696,0.20622701762488457,-0.02455465871099465
zero,0,1,0.1681267777777782,-6.11517493939394,-7.599194727272728,0.9756543640601736,0.09173700149896366,0.19692348977565735,-0.029154815023788888
zero,0,1,-0.05318811111111041,-5.678148424242425,-7.590790909090909,0.975530985252588,0.10360091904499429,0.19145339575751127,-0.03044426439066134
zero,0,1,-0.3739348181818167,-5.800426363636363,-7.550071272727273,0.9746138477622954,0.12676416742942537,0.18119672352203792,-0.03000748967381604
zero,0,1,-0.7542615252525271,-6.024108505050505,-7.41824511111111,0.9730833934459867,0.15090974968503215,0.17110384838771903,-0.027585661374170553
zero,0,1,-1.1431107777777778,-6.2492106262626255,-7.217645202020202,0.9710851995157425,0.1733923783208261,0.1623515753986641,-0.023458038959489422
zero,0,1,-1.1683236666666668,-6.201586121212121,-7.206439393939394,0.9696303285250291,0.18492622335549297,0.15859989121499105,-0.0203407871198448
zero,0,1,-1.148161303030303,-6.053345959595959,-7.183396212121212,0.9679255055908368,0.1966373710356869,0.1552180880294462,-0.016735961985164464
zero,0,1,-1.1966148888888886,-5.894097222222222,-7.135416222222222,0.9659904315887846,0.2085152368471115,0.15219033960803482,-0.012751183935944894
zero,0,1,-1.4403413939393934,-5.804450757575758,-7.042968484848485,0.9637763443445355,0.22059857083968873,0.14960516084576256,-0.008376249777607687
zero,0,1,-1.7815265353535341,-5.630169040404041,-6.855626656565657,0.9614608413070523,0.2316543475496362,0.1478140209458232,-0.0038896810145092114
zero,0,1,-2.506905050505056,-5.414496777777777,-6.443458080808078,0.9591427717364991,0.24195672486659878,0.14644859353702225,0.0005632192332870388
zero,0,1,-3.4953832727272744,-5.179687727272727,-5.872513999999999,0.9567953505566767,0.2516926001549325,0.14541883161887414,0.005051698329364773
zero,0,1,-3.9212039797979807,-5.025607686868686,-5.575560444444444,0.9542027152835448,0.2616947319841433,0.14447051850212334,0.010063641343899218
zero,0,1,-4.34497305050505,-4.86947601010101,-5.364780868686869,0.9515800534566792,0.2713028235847439,0.14350461482398194,0.015341238128121071
zero,0,1,-4.861742303030303,-4.635890212121212,-5.064275818181819,0.9489822410025983,0.2804814184957984,0.14244277653052795,0.02079340135640129
zero,0,1,-5.562104949494949,-4.252091464646465,-4.526397030303031,0.9464545772500966,0.2891008691880212,0.14120565311808175,0.026397336678389678
zero,0,1,-5.683514505050505,-3.8682920404040417,-4.102193555555557,0.941939051942507,0.30356004620381727,0.13784199423858287,0.03787626755720589
zero,0,1,-5.638020484848486,-3.6553027272727276,-3.7370973333333346,0.938696368690985,0.313664333770723,0.13513477978203953,0.046513091587114946
zero,0,1,-5.480468333333333,-3.5759548888888886,-3.3689237777777747,0.9366323186120802,0.31975147655365943,0.13310972198602156,0.05242755014753617
zero,0,1,-5.303977393939394,-3.4610955353535346,-2.7498023434343413,0.9347693933276408,0.32497768337443445,0.13129938493179136,0.057782433597967024
zero,0,1,-5.274502818181818,-3.2183947272727265,-2.392755454545454,0.9329981869121113,0.32971775098414535,0.1297323656433886,0.06281483966669994
zero,0,1,-5.261560606060606,-2.924163010101013,-2.067945010101014,0.9307582855556885,0.3353168228921273,0.1282915900153745,0.06887696602681444
zero,0,1,-5.19712703030303,-2.610400383838384,-1.656131383838384,0.9276572063922233,0.3426675165531455,0.12693673604255004,0.07689700941332249
zero,0,1,-5.225260090909091,-2.2367422727272697,-1.271543484848482,0.9263661350005137,0.34545530967126165,0.12690518013756402,0.07996530386879348
zero,0,1,-5.307843919191918,-1.7966384646464664,-0.8359770606060622,0.9252589016653148,0.34774761566364926,0.12706356332027377,0.0825670538539201
zero,0,1,-5.3970171111111105,-1.336884969696968,-0.4281882828282822,0.9242779194293368,0.3496928626698606,0.12735289830468816,0.08488085563787742
zero,0,1,-5.3465913333333335,-1.0007107272727294,-0.31332821212121276,0.9234313353999397,0.3512754688368483,0.12773163220512654,0.08696446262849265
zero,0,1,-4.6863165050505025,0.12649915151515512,0.0954074141414154,0.9221099953861569,0.35332807141478084,0.12834559885849392,0.09155924727880983
zero,0,1,-4.068181818181821,0.9938447676767664,0.4624367979797964,0.9211626685661131,0.35468053234146174,0.1286804353893559,0.0954007244597926
zero,0,1,-3.765625,1.136719,0.644531,0.9209850109938064,0.3547644417494734,0.1284898443305289,0.0970523585434126
zero,0,2,-13.71875,-4.570312,-8.429688,1.0,1.3877787807814457e-17,0.0,2.775557561562892e-17
zero,0,2,-14.431107656565656,-4.693694707070708,-7.216816656565657,0.9997661590105898,0.004221985203683854,0.0010417018172447009,0.016116903542271105
zero,0,2,-14.914062,-4.777344,-6.394531,0.9993716866054903,0.00810217369275472,0.0018792250146049334,0.03250702922241848
zero,0,2,-14.914062,-4.777344,-6.394531,0.9986390427989389,0.011262790151061429,0.0022868984858926,0.04947235940335808
zero,0,2,-15.884153636363635,-5.297624646464646,-4.60428497979798,0.9975882964369781,0.013657126040549855,0.002262456027060594,0.06653692461622915
zero,0,2,-17.390348545454547,-6.105428808080808,-1.8246924747474758,0.996361756557554,0.015627991089375542,0.001999212659478242,0.08365633024148342
zero,0,2,-17.785510969696972,-6.263257363636364,-0.9680398787878789,0.9947405574172269,0.016491628299784497,0.0012011405680276638,0.10014296089944807
zero,0,2,-18.026988222222222,-6.268150252525253,-0.2586805555555552,0.9929390951888939,0.017019517521064113,0.0002018807252806413,0.11686973596582675
zero,0,2,-17.98508511111111,-5.951546717171717,0.2534722222222219,0.9907264890443896,0.016813894309373016,-0.0012480683473928508,0.13424466253994063
zero,0,2,-17.744318,-5.571022818181818,1.3892046363636354,0.9882389046818988,0.01582265935028912,-0.0031900204573948538,0.15140989520042142
zero,0,2,-17.37649888888889,-5.14966090909091,2.923335151515151,0.9855756397912498,0.014329505774815376,-0.005446307841245626,0.16844115674941437
zero,0,2,-17.351562,-5.121094,3.027344,0.9825520310265594,0.011259652620722468,-0.008218230032901066,0.1849070992203081
zero,0,2,-17.15920881818182,-5.228219909090909,3.7730826363636356,0.9786182606824279,0.006031453177927561,-0.011730077710042162,0.2043731787790559
zero,0,2,-16.40261963636364,-5.649581818181818,6.706321272727273,0.9720915563983978,-0.005191532801621126,-0.017302371385609527,0.23276026186550353
zero,0,2,-14.843789121212119,-5.6577492828282825,9.687855363636368,0.9673988894046233,-0.014383910388277145,-0.020792174691587634,0.2517166069732601
zero,0,2,-12.695075272727273,-5.3620973030303025,12.704900818181818,0.9640547792419191,-0.022083193568394402,-0.022750735078750108,0.2637385859202144
zero,0,2,-11.167455575757577,-5.628985181818181,14.465119797979796,0.9550979543863966,-0.04840380520738809,-0.0215916802091219,0.2895222246424373
zero,0,2,-9.82709905050505,-5.681029191919192,16.016887191919192,0.9463002691079307,-0.07553284295361005,-0.019205476560609613,0.31339185663143987
zero,0,2,-8.90056781818182,-4.747513909090911,17.334516909090908,0.9403140374493227,-0.0980631233627818,-0.013725910195050687,0.324976196147923
zero,0,2,-8.314945838383839,-4.245817292929293,18.18118678787879,0.936016169273762,-0.11496581499667581,-0.009871911227705144,0.33234072174944185
zero,0,2,-8.016966040404041,-4.1084676767676775,18.630484303030304,0.9331428577870224,-0.12712022860142913,-0.0073894847526021655,0.3361447793602096
zero,0,2,-7.648555757575758,-4.268939515151516,19.09386812121212,0.9303736785923694,-0.13972336414271624,-0.00557949795204018,0.33871341288541224
zero,0,2,-6.969618222222223,-4.6263021111111104,19.537326222222223,0.9276406382193442,-0.15251313591699545,-0.00399765426800559,0.3408151374608784
zero,0,2,-4.983861777777776,-5.638967979797981,19.884193777777778,0.9249940168038656,-0.1658101737781476,-0.0029510646200410556,0.34172507904151717
zero,0,2,-2.0523198787878805,-7.084872333333332,19.813210424242424,0.9197514054987794,-0.19565132153236905,-0.0018723602772081913,0.3383111463037753
zero,0,2,1.7934812929292976,-8.94957388888889,19.338304525252525,0.9119993373004058,-0.24148510884989094,-0.000762611729335935,0.3307174683915988
zero,0,2,3.1046005656565656,-9.424163757575759,19.192076767676767,0.9088969339426194,-0.2611868793688412,-1.1577615311628934e-06,0.32483428393103597
zero,0,2,3.8728695454545443,-9.62713109090909,19.08167618181818,0.9067361458489525,-0.27567225017259683,0.0007835020060638252,0.3190078754042229
zero,0,2,4.499092565656568,-9.897174686868688,18.797664484848482,0.9045348248228581,-0.29080575951843596,0.002091974697739932,0.31155755375242145
zero,0,2,5.103219626262627,-10.002603737373738,18.101562929292925,0.9022670153291443,-0.30637353289525887,0.0037261175732405654,0.3030333875271137
zero,0,2,5.6828833030303025,-9.92578096969697,16.94921903030303,0.8999255936034232,-0.3224220985920997,0.0057208238665469304,0.29332032195256663
zero,0,2,5.887941787878788,-9.654237676767677,16.240096525252525,0.8960787717763978,-0.3474434954874657,0.009810530347095675,0.27452754889209374
zero,0,2,5.9979087575757575,-9.38241816161616,15.641098717171719,0.8920930352997543,-0.3730420163562276,0.014180416180402462,0.25445574793069564
zero,0,2,6.111979,-9.477864666666667,15.019531333333331,0.8899305883658055,-0.3859093649547756,0.016658138552619273,0.2421036833867946
zero,0,2,6.240411747474748,-9.53125,14.347695707070706,0.8877754627743001,-0.39825491208132885,0.019088742113231135,0.22959841763567018
zero,0,2,6.387073828282828,-9.53125,13.612058080808081,0.8856296296558959,-0.4099381727241963,0.021459541028344433,0.21689870419845442
zero,0,2,6.4396309090909085,-8.568891818181822,10.422585454545462,0.883328942231267,-0.4214125823681315,0.023628354915540595,0.20335232082232027
zero,0,2,6.693142848484855,-7.577808868686874,6.938842040404044,0.8806904356035601,-0.4340218762534505,0.02600876242952257,0.18703462393589848
zero,0,2,9.433160060606063,-9.51002191919192,8.521859717171719,0.8749237920515269,-0.4595896593021258,0.03135305080659269,0.14363155213313716
zero,0,2,9.932646848484849,-9.697916666666668,8.831202969696971,0.870608848645102,-0.4777194564508088,0.034694775021235656,0.11166867238558863
zero,0,2,7.164693434343439,-7.342013888888893,7.2831043535353555,0.8684109679510227,-0.48500219082866985,0.035116093165672366,0.09638940605189207
zero,0,2,5.555555272727269,-6.601325757575757,5.762152636363632,0.8661942298104949,-0.4916612914291204,0.034523965025216305,0.08119882588442369
zero,0,2,4.486624060606062,-6.429450757575756,4.277698848484847,0.863993153313753,-0.4980043549901173,0.03354655823373721,0.06603413788852054
zero,0,2,5.452730585858586,-5.656565656565657,3.2859845353535353,0.8622154063538666,-0.5027796563306155,0.03241641407481982,0.0507367796925268
zero,0,2,6.166232888888889,-4.986111222222223,2.3576384444444454,0.8605888609073447,-0.5069639224757659,0.031460287056094646,0.03571076381228082
zero,0,2,6.454900818181818,-4.487926545454546,1.535866181818184,0.8592166089151176,-0.5101541748832861,0.030796825227692757,0.021141096372156068
zero,0,2,6.060882303030302,-6.474589939393945,2.1215278383838405,0.8579845552470088,-0.5126054960150895,0.030231390856196513,0.007156063847443616
zero,0,2,5.347971656565655,-9.519886363636363,3.3019654545454546,0.856815499300441,-0.5147195496912372,0.029694044624857904,-0.0065824515320388275
zero,0,2,3.5228453939393956,-10.693181818181817,3.141335272727273,0.8557303831452219,-0.5160878043990517,0.028289696741942243,-0.020909773748930258
zero,0,2,3.0589882222222173,-10.884785353535358,1.7662166060606148,0.8550183384765607,-0.5151972893413308,0.025150547055447364,-0.04491008768917312
zero,0,2,5.2496057777777825,-9.162089646464644,-1.9771546060606142,0.8550337832066874,-0.5099021732408161,0.018628533851972936,-0.08777273548995167
zero,0,2,6.401515454545455,-8.465790818181818,-3.769294757575758,0.8554079881071611,-0.5057908191964485,0.016182975720654056,-0.10996398030529289
zero,0,2,7.0207544242424245,-8.295849363636362,-4.560803595959596,0.8559661725821717,-0.5022865226167719,0.01582790736992773,-0.12155450564092288
zero,0,2,5.1912878787878824,-8.080137707070707,-5.26763712121212,0.8564187606773207,-0.4987006927209926,0.016401579775191927,-0.13224413896465936
zero,0,2,3.651988636363639,-7.852983272727274,-5.857243999999999,0.8568880818466745,-0.49512648112248586,0.017046539365088823,-0.14235108321133272
zero,0,2,2.8697916666666656,-7.601562222222222,-6.18316,0.8573996642248723,-0.4915819354022111,0.017817401784546022,-0.15116617108562244
zero,0,2,2.3810368383838365,-7.395398898989898,-6.4784172020202035,0.8581836140953145,-0.48738106925953284,0.018595903331748865,-0.15990639389484917
zero,0,2,2.0667611212121217,-7.216145575757576,-6.7554448484848475,0.8591295122043883,-0.4827899585413714,0.01937894706301668,-0.16860210234106535
zero,0,2,2.353496070707072,-6.85791512121212,-7.189354515151517,0.8607187314336521,-0.4768824385045462,0.020189108342343796,-0.17682017990207288
zero,0,2,2.6648521010100996,-6.555121737373738,-7.509825020202021,0.8624675504033739,-0.4707263568039368,0.021014191330348472,-0.18463079812381886
zero,0,2,2.9558478484848485,-6.427083393939394,-7.50284096969697,0.8645526726660848,-0.4640917933128309,0.021875472209866485,-0.19141513542508531
zero,0,2,3.2344147070707083,-6.264520202020201,-7.632575757575759,0.866935898542725,-0.4568583568954366,0.022772012201532556,-0.1977821424746299
zero,0,2,3.504458898989898,-6.078282828282829,-7.8560606060606055,0.8695235383260593,-0.449214264757159,0.023692729870100147,-0.20386298020870805
zero,0,2,3.527344,-6.0625,-7.875,0.8724525235537971,-0.4409694231409692,0.024768378175928002,-0.20901232133586703
zero,0,2,3.525134404040404,-6.1801609494949465,-8.086568848484843,0.8763797264211051,-0.4301682627551459,0.026346182943356583,-0.2146152038144183
zero,0,2,3.5158225353535353,-6.6760178080808075,-8.978180424242423,0.8834138950809594,-0.41132915795440245,0.029491951742936333,-0.22195312891259952
zero,0,2,3.177083333333331,-7.102864333333335,-9.071614666666663,0.8907140403050925,-0.39169271060384586,0.033256561070192585,-0.2275620727911422
zero,0,2,2.5787953232323253,-7.475339080808079,-8.536181919191922,0.8982237428222938,-0.3714280539716185,0.03750874172228482,-0.23180878904209087
zero,0,2,1.91895507070707,-7.761639848484849,-8.080768242424242,0.9023935602688502,-0.359883549356912,0.0396875555271049,-0.23346441000118792
zero,0,2,1.1679689393939332,-8.009825000000001,-7.588304545454542,0.906169062360232,-0.3492848776492593,0.041516193601722214,-0.23470982097138063
zero,0,2,0.09244780808080977,-8.154158666666667,-6.908538727272728,0.9101610956378239,-0.3377930739080727,0.043066479445789854,-0.23571471453474147
zero,0,2,-0.5011445050505056,-8.249565878787879,-6.4685137575757565,0.9140332807665565,-0.32645299112164555,0.04438760801622274,-0.23646531833741907
zero,0,2,-0.6594462727272721,-8.300781454545454,-6.24502890909091,0.9177972159543839,-0.3152499466169368,0.0455017558233726,-0.23698624106593122
zero,0,2,-0.7625081414141415,-8.375670767676768,-6.352983454545454,0.9215340082937713,-0.3038546633849202,0.0464400523852612,-0.23704093850674876
zero,0,2,-0.7640864242424221,-8.357362464646464,-6.650016282828287,0.9258215303089605,-0.2905556698008725,0.04756478464932776,-0.2366977849247817
zero,0,2,-0.31711672727272844,-7.861505606060607,-7.581203151515149,0.9328315677279023,-0.2680980500493585,0.049758152652386645,-0.23481637203491673
zero,0,2,-0.7775412121212151,-7.256944444444443,-7.654198585858585,0.9408173767400496,-0.2416463255221494,0.05285919668332747,-0.23031076692635274
zero,0,2,-2.176649333333326,-6.539930555555559,-6.8394097777777825,0.9498126046417196,-0.21106276846835986,0.0568992159155254,-0.2230904802122381
zero,0,2,-2.9109846060606057,-6.218749878787879,-6.528409090909091,0.9536497784019411,-0.19765505228288344,0.05842442977005458,-0.21907745205954968
zero,0,2,-3.4891883030303052,-5.975023444444443,-6.330334595959595,0.95628551428427,-0.18822202543592673,0.05931211680911647,-0.21575641427948222
zero,0,2,-4.043244787878786,-5.646780222222223,-6.116161616161617,0.9587976784173053,-0.17903481310348093,0.0598095438810125,-0.21216121082028983
zero,0,2,-4.6740058181818185,-4.936079545454544,-5.377840909090907,0.9623126072585597,-0.1658487109471515,0.05990796619879389,-0.2064715791801406
zero,0,2,-5.395675939393943,-3.772095959595953,-4.018308080808073,0.967015997976222,-0.14792318381436748,0.05953349399318014,-0.1982996622884871
zero,0,2,-5.571023111111111,-3.3722378888888893,-3.5027618787878794,0.9696175981260088,-0.13775621960608875,0.0589457735171283,-0.19321029361021114
zero,0,2,-5.589844,-3.207031,-3.253906,0.9716144521520963,-0.12980490422242522,0.058288349281218704,-0.18895737148760047
zero,0,2,-5.589844,-3.207031,-3.253906,0.9735162433219775,-0.12205685688016811,0.05754755653733317,-0.184397858726204
zero,0,2,-5.816722030303031,-3.066958525252525,-2.8544032222222224,0.9753287398066441,-0.11460668385280331,0.05686771926251798,-0.1797931058251339
zero,0,2,-6.352154181818184,-2.7363874848484833,-1.9115766666666623,0.9770197955194188,-0.10756161989369217,0.05627078142563847,-0.17512682633410773
zero,0,2,-6.708767222222221,-2.5794271111111113,-1.3802083333333344,0.9793384058285693,-0.09762837419004078,0.05562839333470377,-0.16773398867116493
zero,0,2,-7.014046717171718,-2.4775486767676766,-0.9466540505050486,0.9817648699998763,-0.08715095190966002,0.055003302367682604,-0.15972915531000584
zero,0,2,-7.451704545454543,-2.3192469090909102,0.0706674545454491,0.982732662605323,-0.08272945362678465,0.05482909492035632,-0.1560901225292332
zero,0,2,-7.71511994949495,-2.1028643333333337,0.7249841414141414,0.9836373377433563,-0.07853016435398644,0.054674730262513814,-0.15260473417819212
zero,0,2,-7.70580808080808,-1.7955726666666656,0.811119373737374,0.9844432203236991,-0.0746786804882656,0.05455142388386332,-0.14935983276064385
zero,0,2,-7.616950757575758,-1.4120501515151531,0.913825939393939,0.9854191038160037,-0.06990417289464036,0.05461727624310418,-0.14506992293153362
zero,0,2,-7.474273979797979,-0.9713938686868676,1.0308157272727276,0.9864496993608364,-0.06482285242606324,0.05477898050918962,-0.1404030307203362
zero,0,2,-6.71535638383838,0.2181975050505116,1.3637151818181836,0.9870785064540152,-0.061645103025399835,0.05549038296538414,-0.13704705908160383
zero,0,2,-6.106415272727274,1.0838068181818177,1.5913825757575757,0.987559986477043,-0.059251887778722395,0.05608066855554555,-0.13441763128140358
zero,0,2,-5.768860181818181,1.3631628787878796,1.6286300505050506,0.9877748746588455,-0.0582783057630671,0.05645179029288517,-0.13310290185568988
zero,0,2,-5.415522464646466,1.592013888888888,1.6185292424242426,0.9879766329849865,-0.05745147179620421,0.05668901974604369,-0.13185759235919361
zero,0,2,-5.054688,1.796875,1.585938,0.9881721546296884,-0.0566943431525177,0.0568626503642162,-0.1306452573290756
zero,0,3,-8.21875,-9.292969,-12.304688,1.0000000000000002,0.0,7.589415207398531e-19,0.0
zero,0,3,-9.08041381818182,-9.211134727272727,-12.692195737373737,0.9996889104095545,0.009176568328846287,-0.0027240085855819813,0.01707736876214421
zero,0,3,-9.570904797979798,-9.246369757575758,-12.576033909090908,0.999114536335395,0.018073438879627278,-0.005424625202519544,0.034799687215923296
zero,0,3,-9.448153696969696,-9.475023636363636,-11.627722363636364,0.9981051705055343,0.02650820005795257,-0.008086594219088066,0.05358757472544694
zero,0,3,-9.761008656565656,-10.284485595959595,-10.31277594949495,0.9965712798505844,0.033932392005863274,-0.010321882031906699,0.07282671635072363
zero,0,3,-10.250315616161616,-11.20821519191919,-8.958767131313131,0.9948058904025158,0.040804382112990076,-0.012293803946020991,0.09205262359278013
zero,0,3,-10.967565939393939,-11.63423303030303,-8.138020757575758,0.992639966112933,0.04620119409606375,-0.01344269731649391,0.11021599700789501
zero,0,3,-12.49822401010101,-11.832741555555556,-6.782749212121212,0.9867994517687648,0.05362356264934713,-0.01393520609127785,0.14638862921960247
zero,0,3,-14.816050868686869,-11.811079777777778,-4.910195242424244,0.9774028825330623,0.06300614723831734,-0.013792503967007944,0.19998957639575432
zero,0,3,-16.863281,-11.015980363636363,-3.638493818181818,0.9730470766862832,0.06482044302503281,-0.0133905978289986,0.2204930748838869
zero,0,3,-18.353337777777778,-10.134509323232322,-2.576625252525252,0.9692544273396231,0.0654306630241097,-0.013021779374869077,0.23663971602636513
zero,0,3,-18.374999555555558,-9.292100555555557,-1.8858507777777778,0.9652078773306695,0.06541369182960839,-0.012840521494994055,0.2525994740516978
zero,0,3,-17.361031696969697,-8.154237636363638,-0.2348486363636375,0.9580529515591649,0.06323976390850632,-0.012099687538640488,0.27808647996220953
zero,0,3,-15.775133656565655,-6.8657278383838385,1.971827656565658,0.9492224121402638,0.05984037007120559,-0.011029925498980037,0.30865647320640877
zero,0,3,-14.925504707070708,-6.53839197979798,5.018939707070707,0.9450616181485344,0.05591771047001341,-0.00916397643402668,0.3217450088196402
zero,0,3,-14.439512121212122,-6.293442545454545,7.475142424242423,0.9408734174343545,0.0513092600734382,-0.0067880894281383405,0.3346239825535422
zero,0,3,-14.514125595959596,-6.175505515151515,9.020359919191918,0.9366429646897303,0.04564354886731416,-0.0036260480966419043,0.3471798817234781
zero,0,3,-14.891019333333332,-6.013060434343434,10.040759272727271,0.9325586283357182,0.03906507410915694,0.00018764901062736815,0.35871078175928467
zero,0,3,-15.507812000000001,-5.814985545454545,11.000000181818184,0.9284681840060357,0.03195419193560218,0.004279786290414678,0.36993921484386943
zero,0,3,-16.99045088888889,-5.487649686868687,12.509114303030303,0.9240909769697235,0.02333808078485742,0.008859163231836558,0.3811841258028273
zero,0,3,-17.28748395959596,-5.570667282828283,14.424794565656565,0.33034670088969065,0.017680290458993473,0.00024225485169507982,0.12675471633573726
zero,0,3,-16.510061757575755,-6.025567696969698,16.708925393939392,-0.7975114815112124,0.014703478380677752,-0.02033378710111315,-0.36844204601745795
zero,0,3,-16.433594,-6.070312,16.933594,-0.9045550842430075,0.026719194407550363,-0.024679440252774954,-0.4245882804567363
zero,0,3,-16.05729195959596,-6.254103121212121,17.14891119191919,-0.9003871465382992,0.04052096087907768,-0.027104032145509976,-0.432238505694492
zero,0,3,-14.707031696969699,-6.913588909090908,17.92151993939394,-0.8966075737280367,0.05471226174236402,-0.02913916350016997,-0.4383368561745891
zero,0,3,-13.943892242424242,-7.506786616161617,18.447916565656566,-0.8930054480605336,0.07000615600488035,-0.03121485636822012,-0.44326498550438087
zero,0,3,-13.48646597979798,-8.086884474747476,18.874960292929295,-0.8894975027936531,0.0859593103856551,-0.03332633468331239,-0.4475217590013147
zero,0,3,-12.954545363636363,-9.307173454545454,20.184303727272727,-0.8860196667216512,0.10428422298448084,-0.03586528724751772,-0.4500973354942948
zero,0,3,-12.13458813131313,-10.542258646464646,21.502525191919194,-0.8825886137826794,0.1232149667606654,-0.03846166037460946,-0.45185371177055184
zero,0,3,-10.899858171717172,-11.798650383838384,22.83353102020202,-0.8792249285552708,0.14301810743224672,-0.04114071911225765,-0.45243043973472746
zero,0,3,-9.970052333333333,-12.54557303030303,23.232718181818182,-0.8759787789140369,0.16349229999578122,-0.04383566222721103,-0.4513491451206844
zero,0,3,-8.682883747474751,-13.453598909090907,23.01179788888889,-0.8716232536631089,0.19186036217550967,-0.04756664055290867,-0.4471981462016585
zero,0,3,-5.151988707070712,-15.88695545454545,20.915404111111116,-0.8614475667743381,0.2595602689720673,-0.05655945815724917,-0.4296817990133841
zero,0,3,-3.0429686666666687,-17.057291333333335,19.526041666666668,-0.8546858907152075,0.30350788383457816,-0.06208323244735066,-0.41609507182032524
zero,0,3,-2.1403880202020225,-17.155973313131312,18.7365845959596,-0.8508209511175897,0.32730203887426146,-0.06466357604658265,-0.40584256765350984
zero,0,3,-1.1737292323232351,-17.119870646464648,17.880839929292932,-0.8468871224656096,0.3502138542051056,-0.066483519392276,-0.39404413473748207
zero,0,3,0.19353718181818785,-16.998579999999997,16.839489090909087,-0.8415771854836039,0.38005385351145243,-0.06784497180134555,-0.37604750010659566
zero,0,3,2.5041432424242474,-16.702533444444445,15.368884454545451,-0.8329945721999972,0.42663271199479347,-0.06827332885239995,-0.3435737870547784
zero,0,3,4.075441858585861,-16.802833060606062,14.435369464646463,-0.8275381971625914,0.45552496760059047,-0.06758063894862128,-0.3203321759868279
zero,0,3,5.28610272727273,-17.087357696969697,13.764441272727272,-0.8235991274257395,0.4757777099174919,-0.06631326706681304,-0.3014154895905726
zero,0,3,6.4967641818181825,-17.195667202020203,13.104955484848483,-0.8195114043484342,0.49580034440477694,-0.06450785228949314,-0.2790470354545291
zero,0,3,7.696140848484849,-17.183948363636365,12.26696604040404,-0.8156437885191883,0.5142928260627235,-0.06273327580759633,-0.2566954327877775
zero,0,3,8.880326454545456,-17.01065290909091,11.188683212121212,-0.8120724709084838,0.5307254866042531,-0.06100021241569212,-0.23436651479122675
zero,0,3,10.81466988888889,-15.783656505050507,9.222971777777778,-0.8086512123067335,0.5452306413388334,-0.05988245702589414,-0.21150657629868103
zero,0,3,12.65798588888889,-14.427083111111113,7.121962000000002,-0.8052960177292959,0.558753823513501,-0.05923019036061086,-0.18874916896062732
zero,0,3,13.252485727272727,-13.654474363636364,5.393820909090911,-0.8020740726030515,0.5699591405905503,-0.06000883756137077,-0.16704892976005492
zero,0,3,14.265546171717169,-13.040167212121213,3.4684736363636395,-0.7973887932727832,0.5834902675228747,-0.06470160734018583,-0.13574590445523857
zero,0,3,15.610992979797977,-12.551570151515152,1.3865214545454583,-0.7915414544275546,0.5988683611049764,-0.0725026509309859,-0.09681713724411081
zero,0,3,15.139204363636365,-10.517874090909096,0.9238874545454554,-0.7888023655508077,0.6043237920057453,-0.0789654086095008,-0.07818414095026019
zero,0,3,13.647766373737383,-8.84355286868687,0.4781803939393957,-0.7854081179000915,0.6094082464190943,-0.089495936793978,-0.05253851299679113
zero,0,3,10.184264626262618,-8.20332213131313,-0.1813053939393957,-0.7800834583383989,0.6152118971570791,-0.10922597986722518,-0.008242903780875374
zero,0,3,7.864228575757571,-7.844815090909091,-1.1573154848484875,-0.7782008319422828,0.6164366481268703,-0.1185466423578675,0.014922713461154901
zero,0,3,6.164694303030302,-7.626538565656565,-2.224747464646465,-0.7779501211300793,0.6154739888986327,-0.12308284973282022,0.028541144506961682
zero,0,3,5.936040424242425,-7.590435191919192,-2.5544900505050494,-0.7787653864462495,0.6128582846398778,-0.12654390010777264,0.04232515623109206
zero,0,3,5.808594,-7.570312,-2.738281,-0.7800816107522661,0.6095173820353437,-0.12942048554367228,0.05576243307617034
zero,0,3,5.808594,-7.570312,-2.738281,-0.7820286723047559,0.6052632666990877,-0.13156107809335726,0.06876308081429378
zero,0,3,5.942748040404041,-8.387073616161617,-3.9811789797979804,-0.7916880393715288,0.5865868685696664,-0.1346690529722014,0.09915893346727753
zero,0,3,6.082741666666667,-9.196969696969697,-5.244199969696972,-0.8017797175442819,0.5672027454210385,-0.13759607075360908,0.1282476766997607
zero,0,3,6.1260652222222225,-9.245107323232324,-5.472853232323232,-0.8067084449461228,0.5578847624865109,-0.13891514859479004,0.1363723640500172
zero,0,3,6.144531,-9.265625,-5.570312,-0.8153018308057016,0.5413936215080585,-0.14185619229748253,0.14692434021061332
zero,0,3,6.144531,-9.265625,-5.570312,-0.8266175343767425,0.5195738488398338,-0.14600212492586925,0.15927944520174722
zero,0,3,5.016295666666662,-10.574652777777784,-4.943260525252523,-0.8325092997846307,0.5078838081850942,-0.1485937057462386,0.16367119049729223
zero,0,3,3.9204546464646484,-11.561553131313131,-4.518150303030303,-0.838181191203427,0.4965208635729942,-0.15107814613024972,0.1673767034959925
zero,0,3,3.010653818181815,-11.749290181818182,-4.573508727272728,-0.8439774654222296,0.4847543649537718,-0.15350776350971465,0.17051983101250387
zero,0,3,2.3214177979798,-11.969263333333332,-4.552517393939394,-0.8499891501951466,0.4723995833259274,-0.15552517327775522,0.17330735474272216
zero,0,3,1.738321181818181,-12.187934252525253,-4.501538575757575,-0.8566469993398641,0.45859775058890884,-0.15727436085720128,0.1760457146934985
zero,0,3,1.3098960000000017,-12.240885333333333,-4.472656,-0.8695319646182939,0.4313470350695653,-0.1579520425863217,0.17990064318235455
zero,0,3,0.8284405151515144,-12.11706902020202,-4.7398592828282835,-0.879585751033085,0.4098745649169325,-0.15776585741474936,0.1824864581653386
zero,0,3,0.28448503030303285,-11.784919707070708,-5.356020898989896,-0.8863027909300161,0.39521216966078104,-0.15656154339593198,0.18357653223068773
zero,0,3,0.6138726060606063,-11.380326696969696,-6.360558848484849,-0.8984300249681714,0.36753449952544004,-0.1531342207235908,0.1832104566957307
zero,0,3,1.1150169595959567,-11.083096373737373,-7.300189828282826,-0.9101882088422275,0.3403313428727799,-0.14972180235291502,0.18227307059168937
zero,0,3,1.618055616161616,-11.23473005050505,-7.718986868686868,-0.9166668633203534,0.3243030594442722,-0.1479738332796272,0.18028045603369422
zero,0,3,1.6892757272727261,-11.45596590909091,-7.855113727272727,-0.9227402025964762,0.30864245356461667,-0.14658791758288978,0.17785364011057633
zero,0,3,1.4606218484848488,-11.725536616161616,-7.794941848484849,-0.928532072982319,0.2932371793161087,-0.14545342784209017,0.17512529546167876
zero,0,3,-0.14386018181818905,-12.127801303030305,-6.966540505050501,-0.9380330881622976,0.26499533466876807,-0.1441127291694551,0.16880488747050967
zero,0,3,-1.9681576969696932,-12.280184515151516,-6.268702545454547,-0.9458633984442423,0.24116135439186495,-0.14285385328447298,0.16330125623142236
zero,0,3,-4.122316626262634,-11.9480352020202,-5.869159939393938,-0.9502719208788178,0.2265521404960256,-0.14176414486793934,0.15958532329927166
zero,0,3,-5.561197777777775,-11.02387166666667,-6.082464888888888,-0.9571591493455701,0.2022081698325463,-0.13810824713949732,0.15255013921300067
zero,0,3,-6.615530333333333,-9.778409121212116,-6.439275363636362,-0.9650799727719241,0.1733038555525919,-0.13307783453995709,0.1436173842825858
zero,0,3,-6.678109555555555,-7.684422686868693,-5.941051393939396,-0.9736966661306672,0.13707365500701119,-0.12453628943502636,0.12904591111836283
zero,0,3,-7.260180424242426,-6.159130646464645,-5.281486949494948,-0.9791476677090026,0.11342993434573219,-0.1191272270930691,0.11891679571589142
zero,0,3,-8.41548345454545,-5.261363454545458,-4.44389163636364,-0.9811054921503363,0.10367474321195919,-0.11717469745508269,0.11368959232638756
zero,0,3,-9.13170793939394,-4.708293757575757,-3.8627682020202014,-0.9826780984271449,0.09540013590013247,-0.11567440309287393,0.10862931215765353
zero,0,3,-9.742660949494947,-4.231455141414144,-3.308357222222225,-0.9841172953425791,0.08766194590031313,-0.11430758826979223,0.10362887430131629
zero,0,3,-10.255326515151516,-3.8102507575757576,-2.694602333333333,-0.9853324466596541,0.08086430116678832,-0.11312611475436508,0.09873234590804479
zero,0,3,-10.67747774747475,-3.2459752222222185,-2.0954467474747442,-0.9864200431580078,0.07466329861968875,-0.11196436887377453,0.09396303933446758
zero,0,3,-11.040916979797979,-2.5888967777777783,-1.50576097979798,-0.9874249013955692,0.06884930722054076,-0.11081541929686178,0.08927625502231375
zero,0,3,-10.60179924242424,-1.2192237878787813,-0.6390861212121169,-0.9883315638229035,0.06360112291570792,-0.10928972818125283,0.08472978888695591
zero,0,3,-10.01388888888889,-0.20312533333333382,0.013454999999999662,-0.9894238362902537,0.05727892070914405,-0.10704639760454905,0.07895868650390397
zero,0,3,-9.185921717171714,0.16512796969697113,0.27821163636363744,-0.9908480459774794,0.049036060648997466,-0.10354201898318398,0.07101249228107966
zero,0,3,-7.273082272727278,0.844105363636362,1.1147014545454526,-0.9919375894826122,0.04139888398033248,-0.101705231290375,0.06257802070920612
zero,0,3,-5.234966606060606,1.5689317171717179,2.063328383838385,-0.9928034771851713,0.03467625717977648,-0.10070551396715459,0.0547369163840431
zero,0,3,-5.20608403030303,1.7951782525252518,2.308830585858585,-0.9928619616530436,0.033347426345141165,-0.1015892329481496,0.05281249154803998
zero,0,3,-5.21152903030303,1.9077887272727272,2.4963306666666667,-0.9928912221492358,0.03220473167458329,-0.10258502199865682,0.05102440867603901
zero,0,3,-5.252445858585859,1.9029752727272728,2.6238952222222216,-0.9928902845413583,0.031254377706905465,-0.10369661678765994,0.04937721250017365
zero,0,3,-5.065419858585858,1.7224984040404037,2.713818,-0.9928614932584878,0.03056794267432393,-0.10482638554851695,0.04796592565518761
zero,0,3,-4.844579060606061,1.5622629696969697,2.741240666666667,-0.992825308165412,0.029983131168215604,-0.10593394609564143,0.046648312406833245
zero,0,3,-4.625552707070707,1.5454146464646463,2.5944204444444443,-0.9927793419944954,0.029587798894089933,-0.106964988848147,0.04550876405762903
zero,0,3,-4.366043303030304,1.5510569494949493,2.3756309090909107,-0.9927350470887271,0.029329610215673357,-0.10790277943792706,0.04441483932844079
zero,0,3,-4.082031,1.570312,2.113281,-0.9926917637381802,0.0291544295030807,-0.1087841279292154,0.043348528895578
zero,0,4,-9.003906,-6.296875,-10.882812,1.0,0.0,2.1684043449710093e-19,0.0
zero,0,4,-11.981099656565657,-7.01854497979798,-10.359295898989899,0.9978883467127724,0.012691745133505744,-0.015813424008388845,0.04721541288416501
zero,0,4,-13.536852404040403,-7.520241727272728,-9.52900101010101,0.9960284593462717,0.021311723202153,-0.026547917312086375,0.0815319827083793
zero,0,4,-12.988872606060605,-7.696378090909091,-8.244673515151515,0.9945411855424471,0.023905486014809702,-0.029765593172840762,0.09675826480386655
zero,0,4,-13.188604424242424,-7.722577585858586,-7.262192484848485,0.9928005154749899,0.02549854102338802,-0.03137437888798404,0.11206560389541856
zero,0,4,-13.661142525252526,-7.685606343434344,-6.379853404040404,0.9909690092831632,0.026535667456717506,-0.03208528398389069,0.12721715100312686
zero,0,4,-14.485559030303031,-7.5461652121212115,-5.601917484848484,0.9890243469348916,0.02638262647379847,-0.030867296600550594,0.14170815676606105
zero,0,4,-16.356534303030305,-6.94491814141414,-4.844972919191918,0.9870396018346259,0.025370757640676207,-0.028471434356912795,0.15550285524786758
zero,0,4,-18.862334030303032,-6.057883272727272,-4.103061616161615,0.9850259647047519,0.02379600890596468,-0.025313091387072488,0.16885395953830026
zero,0,4,-19.77237190909091,-5.529474181818181,-3.469459818181818,0.9827941545297969,0.020973059140032228,-0.021022602947190525,0.18197197235416274
zero,0,4,-20.58597683838384,-5.041074626262626,-2.7794346060606054,0.9789513573414894,0.015209303531989389,-0.014707816421608599,0.2017102911299373
zero,0,4,-21.26605922222222,-4.608072888888889,-2.011284666666666,0.9728779627500783,0.0053736629117937165,-0.005590155623519038,0.23061518738866704
zero,0,4,-21.326349424242423,-4.810961303030304,1.4976325757575788,0.9688590684911802,-0.002125263167453256,-0.0014582345382479736,0.24725588115476219
zero,0,4,-21.165127626262628,-5.07698095959596,5.029829545454547,0.6938428073470913,-0.0032636641279850456,0.00012928518456823974,0.1816935693685316
zero,0,4,-20.70276982828283,-5.0892124949494955,6.615056818181819,-0.5118265774811868,0.015677459019317615,-0.0033199233376033726,-0.15663829238405957
zero,0,4,-20.038825757575758,-5.815459181818182,9.302083333333336,-0.9495742649981023,0.0470552372491356,-0.0074859874046952195,-0.3066735890092702
zero,0,4,-19.20643939393939,-7.000828353535355,12.6712436969697,-0.9347668408248335,0.0850155390848862,-0.011988093909405362,-0.3447052560102389
zero,0,4,-16.887310606060602,-9.327296313131315,17.011048303030307,-0.9296130183777873,0.1004184207156531,-0.013888644670998842,-0.3540288019222102
zero,0,4,-14.090909090909086,-11.425781181818184,20.96413381818182,-0.9246334969805092,0.11597006944738626,-0.016230933230206076,-0.36218367115070493
zero,0,4,-10.675820707070702,-13.228732414141417,24.415916808080812,-0.9198799213884864,0.13171456442111273,-0.019145844860394102,-0.36882358912284113
zero,0,4,-10.125,-13.519531,24.972656,-0.9156386412168915,0.14746667482670117,-0.02338776970332608,-0.3729909462055771
zero,0,4,-9.613636363636362,-13.887073575757578,25.70655751515152,-0.9114852811451747,0.1638677663205516,-0.028546755588753414,-0.3760219260237622
zero,0,4,-7.499999999999997,-15.406249555555558,28.740017111111115,-0.9072987132228176,0.18229774310509075,-0.035779588881705064,-0.37698213351304466
zero,0,4,-6.017676767676766,-15.940577454545455,31.48780761616162,-0.9033205545708511,0.20104261404849988,-0.04398527366651086,-0.3760063643665379
zero,0,4,-4.9375,-15.933594,33.953125,-0.899466192504558,0.21999313766634776,-0.052757272074716546,-0.3738208062784858
zero,0,4,-4.9375,-15.933594,33.953125,-0.8957922030151132,0.2395820587297138,-0.06214376143956428,-0.3687835462838277
zero,0,4,-2.647253858585851,-15.533656989898988,33.22727279797979,-0.8890543954035109,0.2781006792847312,-0.07788447144835096,-0.3511686997265176
zero,0,4,2.424005454545463,-14.64808218181818,31.620028636363635,-0.8785962372150035,0.339605363508182,-0.10134102081049194,-0.31828106948598733
zero,0,4,4.615648424242427,-14.651278292929293,30.069247141414138,-0.8743467360114971,0.36559110566705166,-0.10888840717146231,-0.2992558579230022
zero,0,4,6.622592949494954,-14.718907747474747,28.09055368686868,-0.8712378269491217,0.3850854460040912,-0.1133083919681255,-0.282090938122977
zero,0,4,9.504379878787883,-14.537878393939394,24.854047848484843,-0.8683770070946312,0.4032576216867848,-0.11650407071373174,-0.2635066197210564
zero,0,4,11.182567909090912,-14.395675212121212,22.57039112121212,-0.8638580256458989,0.4308048490560952,-0.11961956938730878,-0.2279610125413428
zero,0,4,12.25232770707071,-14.277777757575757,20.7672033030303,-0.8586632086716083,0.46193066795580434,-0.1225509544781235,-0.18498607516012386
zero,0,4,13.438801666666668,-14.223958,18.854166999999997,-0.855983659636399,0.47531915578837597,-0.1234081763245652,-0.1602544457799531
zero,0,4,14.959398393939397,-13.20553145454545,14.515309696969682,-0.8506743809892545,0.4942789959747748,-0.12647459580560763,-0.11422567221332439
zero,0,4,16.860203787878792,-11.089448909090905,7.41603539393938,-0.8423726514043904,0.5195786509086321,-0.13205492983636813,-0.04396221733107132
zero,0,4,16.22762809090909,-10.079190363636362,4.968039636363633,-0.8388342003555138,0.5266505782749972,-0.13571225369277304,-0.016471238384500875
zero,0,4,15.280776808080805,-9.409840757575756,3.468039565656564,-0.8354079192936055,0.5309374188197784,-0.14026071352374267,0.00823464281459255
zero,0,4,14.495502343434342,-9.209240696969697,2.6534090404040387,-0.8304106064183827,0.5350000991770303,-0.14792218433615034,0.04234172642161213
zero,0,4,13.637310787878786,-8.907552151515151,1.9696971818181805,-0.8272449428470353,0.5366678282749343,-0.15317174775549558,0.06353690645319773
zero,0,4,12.48437478787878,-8.505840121212119,1.1650494141414076,-0.8249536149731148,0.5371500894110574,-0.1572765728439819,0.07848197790164049
zero,0,4,8.36718775757575,-7.512626424242422,-1.7289690505050572,-0.8226864749716799,0.5371191797621957,-0.16142459252301516,0.09226900234032408
zero,0,4,6.242188,-7.0,-3.222656,-0.8205652466488949,0.5369274485658226,-0.16527379394616062,0.10482905510981066
zero,0,4,6.242188,-7.0,-3.222656,-0.8185996574500027,0.5365641743854374,-0.16880425589635906,0.11608033809882047
zero,0,4,4.406250222222217,-7.008680555555555,-3.7044271111111127,-0.8172370725274323,0.5353563975422454,-0.1711254782780399,0.12709120958428444
zero,0,4,1.6242898181818066,-7.277698818181821,-4.314986000000002,-0.8164157658491326,0.5335249382455749,-0.17239601344272593,0.13801434023038944
zero,0,4,-2.898989696969709,-8.180397525252529,-5.090475111111113,-0.8167299824375279,0.5304316560021631,-0.17147440994274118,0.14879778795916457
zero,0,4,-3.7982161818181797,-8.704742707070707,-5.92874074747475,-0.8185482586947601,0.5253878429410319,-0.1682122785332281,0.1598015089722278
zero,0,4,-2.9895828484848437,-9.024739818181818,-6.80492472727273,-0.8212013144681045,0.5192491734989639,-0.16371495140019546,0.1708007941318667
zero,0,4,-1.1866316161616113,-8.99782993939394,-7.776120909090912,-0.8254428570133718,0.5109358940753365,-0.15734154052105087,0.18085026413829478
zero,0,4,0.7471987979797923,-9.127485717171716,-8.347340686868685,-0.830345973395623,0.5014371240594067,-0.15039769878553352,0.1905478028153849
zero,0,4,2.811908393939388,-9.413707151515151,-8.518584060606061,-0.8359106636148581,0.4907528634511745,-0.14288342619364336,0.19989341016313716
zero,0,4,4.821378232323238,-10.285471939393942,-7.56514323232323,-0.8470570868140497,0.46819095650588366,-0.13124693488194905,0.21310963006766978
zero,0,4,6.025765919191921,-11.037050343434343,-6.782827878787879,-0.8568894884186505,0.44799450376524347,-0.12180720964351241,0.22388315699761835
zero,0,4,5.42152018181818,-11.37464472727273,-6.660511272727272,-0.8623945863497529,0.4360315533552041,-0.11833867344089673,0.228189933248575
zero,0,4,4.551649555555558,-11.637586666666666,-6.642360888888889,-0.8676655005531543,0.4243235186851684,-0.1159776456454259,0.23140136000659453
zero,0,4,3.459043757575751,-11.876893939393941,-6.706044323232325,-0.8728079775640898,0.41276280949712885,-0.11416773925862776,0.2340365352241509
zero,0,4,1.4701701818181867,-12.170454545454545,-7.077887757575757,-0.8776940386161156,0.40154028564619176,-0.11312822405986418,0.23566478599393698
zero,0,4,0.20225660606060414,-12.36300505050505,-7.366398020202021,-0.8828167760129907,0.3896078636201877,-0.11220557719143356,0.2369489910255185
zero,0,4,-0.3897569696969684,-12.460858585858585,-7.576783434343434,-0.8881613974831618,0.3770099120550586,-0.1113924943826901,0.23791065317753327
zero,0,4,-0.8018463030303044,-12.439512454545454,-7.643229454545454,-0.8935739680181792,0.36386826938042977,-0.1105176906504573,0.23829416686039273
zero,0,4,-1.243134020202019,-12.296441121212121,-7.676531232323232,-0.8989046553282045,0.35072892982385284,-0.10956916130363796,0.23848065746742772
zero,0,4,-1.7788822828282846,-11.919704696969696,-7.666745252525253,-0.9040508709327489,0.33769458044061884,-0.10847717780998746,0.2383599006490231
zero,0,4,-1.872514181818182,-11.672585090909092,-7.656960181818182,-0.9093545646755031,0.3238397656913106,-0.10707173504123361,0.23788864658028422
zero,0,4,-1.808594,-11.5,-7.648438,-0.9146843535602659,0.3096769083081873,-0.10553727649129878,0.23721517442708806
zero,0,4,-1.808594,-11.5,-7.648438,-0.9197887154011514,0.295526949830302,-0.10393128256990593,0.23607049819215778
zero,0,4,-1.651041999999999,-11.4375,-7.750000333333333,-0.9247291145552534,0.2814352678324296,-0.10251803818177492,0.23459095634351657
zero,0,4,-1.3550352121212128,-11.320075757575758,-7.940814414141414,-0.9295254252876367,0.2673947984988113,-0.10127417974711649,0.23281713865252332
zero,0,4,-1.2810137575757574,-10.571022727272725,-8.390230575757577,-0.9340304932647985,0.25348121455992095,-0.10051485222790163,0.23042358053328027
zero,0,4,-1.366477666666666,-9.948271727272727,-8.642045757575758,-0.9394708809681958,0.23599478454842476,-0.1001910537748601,0.22664293601647245
zero,0,4,-1.7334281111111127,-9.657157303030303,-8.473248565656565,-0.9467765840417448,0.21151571318603135,-0.10065233335895106,0.22023761660378924
zero,0,4,-2.125789141414141,-9.331557747474749,-8.280855696969697,-0.9511443244410127,0.1962960994213849,-0.10140955608812463,0.2154016276463069
zero,0,4,-2.643821000000005,-8.958096818181815,-8.045454545454543,-0.9544296908904909,0.1844387513008213,-0.10230510136942225,0.21106351745947713
zero,0,4,-3.8498656666666644,-8.373421787878788,-7.605113636363637,-0.9573589333259669,0.17341517998553632,-0.10340902973054682,0.20644288605728708
zero,0,4,-4.669546696969699,-7.987294737373737,-7.251972767676766,-0.960121984485073,0.1628276812979174,-0.10456311468348546,0.20159352800086838
zero,0,4,-5.171045909090909,-7.764677787878788,-6.970643696969697,-0.9627481722401097,0.15259930124484716,-0.10575850506497683,0.19655580681743798
zero,0,4,-5.630642010101012,-7.379103434343433,-6.847616989898989,-0.9651236976141205,0.1429731153359475,-0.10690734620688412,0.19127943352439888
zero,0,4,-6.047308777777777,-6.964409777777778,-6.726562888888889,-0.9673896536674471,0.13368628880122047,-0.10794165565760576,0.18597170250685174
zero,0,4,-6.389796151515153,-6.5118373333333315,-6.594460303030303,-0.9694795664918893,0.1249608065082087,-0.10877202914342139,0.18062902081389154
zero,0,4,-6.70632101010101,-5.897924808080809,-5.755800070707072,-0.9714690278603798,0.11649027806373079,-0.10932026689384174,0.1750995306524591
zero,0,4,-6.964844,-5.339844,-4.863281,-0.9733860971130807,0.10824531913148212,-0.10973390913473503,0.16952967271977523
zero,0,4,-6.964844,-5.339844,-4.863281,-0.9750934340352535,0.10075020676525946,-0.109915879989084,0.1640599249412833
zero,0,4,-6.9620818282828285,-4.726681121212116,-3.8095798383838293,-0.9773937983062038,0.0903598248676657,-0.1102164566248825,0.15564324443414518
zero,0,4,-6.957188838383838,-3.6405068787878796,-1.9430234949494967,-0.9801516408176395,0.07773594933158585,-0.11060852914922777,0.1449532158220516
zero,0,4,-7.080137060606061,-2.8810368787878753,-1.5821495757575743,-0.981152837313005,0.07294519023674192,-0.11107358018374608,0.14019611496754242
zero,0,4,-7.2309421010101005,-2.062578606060607,-1.2315342828282831,-0.9820368018945651,0.06871284194357465,-0.11156415025898292,0.1357219687913261
zero,0,4,-7.42175680808081,-1.1256308484848438,-0.8132102626262606,-0.9828212706144944,0.06498462277613691,-0.11209386687877619,0.1313922759354819
zero,0,4,-7.542495393939394,0.03858915151515063,0.27178042424242344,-0.9835349608619102,0.06184826794089368,-0.1124843690926919,0.1271363155718177
zero,0,4,-7.612413222222222,1.0594615555555558,1.3940974444444465,-0.9842195972304447,0.058995572854632625,-0.11275105646842427,0.12293449294569729
zero,0,4,-7.541469565656566,1.1083883232323233,1.7879577676767675,-0.9848652410494976,0.056657665518980625,-0.1126319490750729,0.11888396611899117
zero,0,4,-7.390980454545454,1.0848718181818178,2.139204636363638,-0.9854925744529577,0.054622684141926454,-0.11218352983026737,0.11499909827314025
zero,0,4,-7.183041848484848,1.0090351717171717,2.459675121212121,-0.9861066836673786,0.052806482623859646,-0.11149727424830053,0.1112338730245737
zero,0,4,-7.179688,1.007812,2.464844,-0.9867270438538445,0.05138970795939807,-0.11026941873015571,0.1075118111923122
zero,0,4,-6.590672727272727,1.0627363636363636,2.695904606060606,-0.9872993322401171,0.05016030056922259,-0.1090049902888103,0.10409872952431964
zero,0,4,-5.069049939393931,1.2046243030303039,3.2928111717171746,-0.9877953446907439,0.049217190393089555,-0.10769671264090466,0.10117374608785411
zero,0,4,-4.75,1.234375,3.417969,-0.9882518231138883,0.04848247080867545,-0.10642828417825138,0.09835867174395421
zero,0,4,-4.524621212121206,1.2348484545454546,3.388139424242423,-0.9887121227469171,0.04786714434378416,-0.10534318811171602,0.0951472407303344
zero,0,4,-3.3601641414141414,1.2372946363636363,3.2340199494949493,-0.9892320466691988,0.047518925460888845,-0.10497792605891347,0.09016282544633822
zero,0,4,-2.786971181818181,1.2470406565656567,3.0200441919191903,-0.9894130874875122,0.047552134626960396,-0.10545889004184711,0.08762291501573176
zero,0,4,-2.613281,1.261719,2.765625,-0.9893651532355768,0.0478430654477393,-0.1065116283732511,0.0867346970536319
zero,0,5,-6.964844,-7.898438,-8.316406,1.0,0.0,6.938893903907228e-18,0.0
zero,0,5,-6.8465905454545455,-8.118963363636363,-7.456676090909091,0.9995926109542218,0.00918166254277762,-0.007537756005102682,0.022920513997027256
zero,0,5,-7.590908909090909,-8.190341,-6.912642363636364,-0.27171987448304513,-0.00869237581012398,0.007228811498661272,-0.024971417584687565
zero,0,5,-8.84623590909091,-8.231534090909092,-6.3220884545454545,-0.9971898511294396,-0.023206387508944364,0.019595937891491045,-0.06707206323735121
zero,0,5,-10.365412181818181,-8.325284090909092,-5.600852454545454,-0.9952203811450805,-0.028649184787772675,0.025151376371738293,-0.08891919948568199
zero,0,5,-11.988636545454545,-8.560014181818183,-4.812855090909091,-0.9926522904686355,-0.03355892475229282,0.031108000070150382,-0.11172931704672927
zero,0,5,-13.609019454545454,-9.240766818181818,-3.831675909090909,-0.9896607724498213,-0.03738873247435478,0.03697816849138902,-0.13319974614186603
zero,0,5,-13.317471454545455,-8.964133272727274,-2.8277701818181815,-0.9860748528430137,-0.040393343386546494,0.042933637586489694,-0.15499416558761658
zero,0,5,-11.749289909090908,-8.26526990909091,-0.41264254545454415,-0.976200849480551,-0.04187462401125356,0.05242794902060749,-0.2026383833634877
zero,0,5,-10.584162181818181,-7.648082454545455,1.8671872727272723,-0.9669491868889477,-0.04107825325902874,0.05867177204826134,-0.24444391774312632
zero,0,5,-10.606179181818181,-7.268820818181818,3.1210939090909084,-0.9623392378411618,-0.03800636887947398,0.05828693214395987,-0.26264653241825336
zero,0,5,-10.75,-6.703125,4.457031,-0.9576598937929478,-0.0338282663271678,0.0566405519696852,-0.280241010721749
zero,0,5,-11.910156454545454,-5.606889,6.250000363636364,-0.953227235362561,-0.028615748820493173,0.05410066207850878,-0.29588155707341735
zero,0,5,-12.167969,-5.363281,6.648438,-0.9487453051613499,-0.022534083353007852,0.05111504253842293,-0.31090422133381407
zero,0,5,-12.027699,-5.150212818181818,6.984020272727273,-0.9440303674054196,-0.01532616687544434,0.04782017220615971,-0.3258302743142314
zero,0,5,-11.587712999999999,-4.652698545454545,8.024858000000002,-0.9390906605911566,-0.006916807338515638,0.044348276847050505,-0.340582272354921
zero,0,5,-10.828835,-4.031249545454546,9.790127363636364,-0.7652327854685947,1.973266115044164e-05,0.03409298882808329,-0.28760484873957304
zero,0,5,-10.518821,-4.242187454545454,10.362215636363636,0.7591764339827006,-0.012811957914805543,-0.029925353178356484,0.30340001039551207
zero,0,5,-10.106534272727272,-5.163352272727272,12.75816718181818,0.9150852649312115,-0.0500550792591059,-0.02760373221783092,0.3980624416204469
zero,0,5,-9.325639454545454,-5.6384941818181815,14.248579454545453,0.9067687967678779,-0.0743842149699441,-0.021772514182396403,0.41427921572794524
zero,0,5,-8.362571181818183,-5.691406,14.900923363636362,0.8999495545503586,-0.0992446987148002,-0.01657823969237884,0.42360468596501943
zero,0,5,-7.340908999999998,-5.729758272727274,15.569957181818186,0.8917287207979665,-0.13143482910155113,-0.009843565148953855,0.43283030582570065
zero,0,5,-6.132812,-6.394531,17.484375,0.8870084363346586,-0.1520297309121875,-0.0053934524298203,0.4359746614894023
zero,0,5,-5.7428976363636375,-6.694957545454545,18.48153409090909,0.8821902678198141,-0.174396691938178,-0.000903282022177771,0.43726893817419815
zero,0,5,-5.149147727272727,-7.405540181818182,18.536576545454547,0.8736934880867531,-0.21744587880932692,0.005903178710244076,0.4341151975617282
zero,0,5,-4.339133636363638,-8.169389363636363,18.38991463636364,0.8669230096385194,-0.253127875092376,0.011182257893822548,0.42893878894085236
zero,0,5,-2.2052559999999963,-8.923650454545456,18.242897727272727,0.8590802789607914,-0.29666400109818036,0.0177720987110919,0.41387360489248104
zero,0,5,1.9751416363636347,-9.677912181818181,17.838423272727276,0.8457173060957924,-0.37099211099623375,0.029665751559694864,0.3822752343316376
zero,0,5,3.3686083636363655,-9.767400818181818,16.243607727272725,0.8408982945912298,-0.39605212242108534,0.034996226078382736,0.3670086626904899
zero,0,5,3.523438,-9.777344,16.066406,0.8358931789148523,-0.4208031761551678,0.04078774534685043,0.3496470157867755
zero,0,5,4.669744545454548,-8.86967327272727,13.032315090909083,0.8273070191443858,-0.45969536546372786,0.050600935826243865,0.3165277842881632
zero,0,5,5.625,-8.113281,10.503906,0.8189786881329322,-0.4950592487081212,0.05987375509844657,0.28322347247667695
zero,0,5,5.6960227272727275,-8.033735545454546,10.273792363636362,0.8132409153421118,-0.5164763571905582,0.065875109539683,0.2594928538912035
zero,0,5,6.015625,-7.675781,9.238281,0.8076594494064886,-0.5355343077246152,0.0714617999541285,0.2361830438063686
zero,0,5,6.501420454545453,-6.573153363636366,7.061789727272732,0.8021322267981811,-0.5524310050508956,0.07661668915051423,0.21292585791184224
zero,0,5,6.987215909090909,-6.556818181818182,4.621803818181817,0.7880781193302809,-0.5876382618095563,0.08898370846038269,0.1523499842043104
zero,0,5,7.204900454545454,-6.556108181818182,3.22514190909091,0.777932962925725,-0.6110642723826006,0.097749426471739,0.10776633813635758
zero,0,5,7.191051090909091,-6.3877844545454545,2.7382811818181816,0.7729208772459801,-0.6203633126096042,0.101979145969583,0.08457421332764403
zero,0,5,7.120739090909091,-6.362215909090909,2.2798292727272735,0.7680563505214804,-0.6284418308537054,0.10621561939618791,0.06162942988199662
zero,0,5,6.871448909090908,-6.387784090909091,1.8100137272727266,0.7634617735107063,-0.6350234159569329,0.11060965371881377,0.03957932355293288
zero,0,5,6.164772545454546,-6.115057,1.6867894545454545,0.7594225493481579,-0.6399585100749559,0.11501620455130096,0.019018982470627787
zero,0,5,5.411576727272726,-6.216264454545455,1.7837358181818184,0.7542820452659884,-0.6445764105434068,0.12181828204738233,-0.012959445498711438
zero,0,5,4.629616545454542,-6.581321181818184,1.9463779090909097,0.7503082415182271,-0.6471158049560384,0.12771783490582134,-0.042740544903029774
zero,0,5,3.4037640909090974,-7.138494272727271,1.4165480909090977,0.7497512783440791,-0.643423184996216,0.13156582104686687,-0.07361148745443845
zero,0,5,0.773438,-8.113281,-1.4375,0.7534880390959345,-0.6267683299973422,0.1374186610601679,-0.1432946162426782
zero,0,5,1.4733663636363654,-8.631037090909091,-1.642045454545455,0.7570711802942212,-0.6182602079971772,0.13912900136243778,-0.15864646724638382
zero,0,5,1.9048294545454532,-8.912641818181816,-1.8888492727272719,0.7608563611863534,-0.6094337889738529,0.14132746940952803,-0.17211148266446222
zero,0,5,2.1938918181818177,-9.165837909090907,-2.0678264545454548,0.7650425171792185,-0.5998962551672772,0.14408407962606007,-0.18432524326474486
zero,0,5,2.382457090909091,-9.476917727272728,-2.073153090909091,0.7696116954030627,-0.5896813133015095,0.14740413172148412,-0.19537852933782576
zero,0,5,2.531960454545456,-9.919033818181822,-1.9534796363636384,0.7744534145546784,-0.5789849320719215,0.15131137662775265,-0.20511172075914264
zero,0,5,3.1360085454545437,-10.983309181818179,-2.5894883636363617,0.7797406986989758,-0.5673373533379201,0.15626016083201524,-0.21373611301836706
zero,0,5,3.1036930000000003,-11.661221636363635,-3.1487923636363635,0.7850690374011076,-0.5554960884650576,0.16178436418286968,-0.22100266054727466
zero,0,5,1.3405539999999958,-11.502485636363636,-3.6004971818181826,0.7981872997771156,-0.5267985079766988,0.17266560089500557,-0.23406524037286544
zero,0,5,-0.05220145454545415,-11.080255272727271,-3.8483666363636364,0.8104033346439454,-0.500430111196651,0.1811487188024772,-0.24479103661348803
zero,0,5,0.027344,-10.878906,-3.890625,0.8167639701207456,-0.48725790397548985,0.18320136677285762,-0.24870984235262988
zero,0,5,0.027344,-10.878906,-3.890625,0.8236071852660428,-0.4732619521312676,0.1848003090387315,-0.2520777158382653
zero,0,5,0.5578833636363648,-10.10227309090909,-5.130681818181821,0.83031520475694,-0.45957621386177583,0.18602747739939268,-0.25437573061775354
zero,0,5,0.9119317272727261,-9.668679000000003,-5.647371999999999,0.8372289983866914,-0.4455231878666156,0.1871090061643166,-0.2558513449806869
zero,0,5,1.1321022727272725,-9.304687363636365,-5.795809636363637,0.8442363188216131,-0.4313102442006744,0.1880056842020319,-0.2565083271788126
zero,0,5,1.2482243636363637,-8.996803909090909,-5.96519890909091,0.8513395133030557,-0.4169179305161814,0.1886779210476939,-0.25636228545496303
zero,0,5,1.2276276363636347,-8.889914545454547,-6.402343272727274,0.8585612266252515,-0.40228396933895255,0.1890818826939141,-0.2554528241409065
zero,0,5,0.7098723636363653,-9.129616454545454,-6.578124727272726,0.865641703613221,-0.38788302601311475,0.1890972373164495,-0.2538135329563725
zero,0,5,0.652344,-9.15625,-6.597656,0.8727166014694682,-0.37331976787639887,0.18871692865177953,-0.2516039843864314
zero,0,5,-0.142400727272729,-8.828125272727272,-6.354758545454545,0.8848361461744357,-0.34790506645148517,0.1867014617578952,-0.2464120355614942
zero,0,5,-0.6867901818181807,-8.452415272727272,-6.122514181818182,0.8960834682517785,-0.3240105936597238,0.18418497473850168,-0.2408793127805816
zero,0,5,-0.4264917272727278,-8.24858,-6.083806363636364,0.9031047172507887,-0.3086456741148541,0.18199243840360252,-0.2365258030576493
zero,0,5,-0.183594,-8.136719,-6.144531,0.9101873749968996,-0.2927900414272304,0.1796569730672254,-0.2314223542910583
zero,0,5,-0.183594,-8.136719,-6.144531,0.916686895867611,-0.2776688921265107,0.1776508778957703,-0.22573659464014947
zero,0,5,-0.5241478181818164,-7.773792545454547,-6.4105112727272715,0.9274815123795785,-0.25105486178178904,0.1750377823044286,-0.21373764846004956
zero,0,5,-0.8554686363636359,-7.355113272727273,-6.6583809090909085,0.9357814571476648,-0.2299386846093463,0.173256212514389,-0.2032648041653735
zero,0,5,-1.1100849090909093,-7.06321,-6.810724727272727,0.941038026782724,-0.2158388963322447,0.17222804350999477,-0.19521720931840322
zero,0,5,-1.4495734545454573,-6.991477727272728,-6.874999818181817,0.9461051917683834,-0.20183838002284712,0.1710621658581026,-0.18668391037830925
zero,0,5,-2.3316765454545427,-7.266335272727272,-6.558594181818182,0.9507115450204279,-0.18877344555286268,0.1696036239624398,-0.17808331668440244
zero,0,5,-4.276278545454543,-5.691761545454547,-5.909801636363636,0.9619760507484485,-0.15587196469852935,0.16282102906510168,-0.15208357669850633
zero,0,5,-5.122159090909092,-4.478338181818181,-5.4005685454545445,0.9683212470684895,-0.13719235286642656,0.15810080816331684,-0.13582686139662967
zero,0,5,-5.474432000000002,-3.4005681818181768,-4.554332636363631,0.9717079707052538,-0.12715410612464378,0.15447858631432418,-0.12517070964826948
zero,0,5,-5.867188,-2.40625,-3.480469,0.9749262615180262,-0.11771525445130729,0.15042232262070276,-0.11393816619842684
zero,0,5,-5.867188,-2.40625,-3.480469,0.9779167775385568,-0.1091027073854822,0.1460104054728335,-0.102256231807269
zero,0,5,-5.512429272727272,-3.1637071818181837,-1.1857242727272674,0.9806105107916243,-0.10116099051641206,0.14150896726681167,-0.08994945316873032
zero,0,5,-5.058238727272725,-3.284800727272727,0.10227281818182288,0.982776932415258,-0.09437031930956807,0.13793854666580047,-0.07844175891821503
zero,0,5,-4.84375,-3.257812,0.546875,0.9843959389552643,-0.08880207012853134,0.13565299617121457,-0.06806153065210112
zero,0,5,-5.566051272727256,-2.7485791818181937,1.6867896363636095,0.9855371531684142,-0.08420610581399557,0.13480541334586832,-0.058499470481862104
zero,0,5,-7.492188,-1.390625,4.726562,0.9863030685851859,-0.0802484251757712,0.13537771398036802,-0.04929488599569893
zero,0,5,-7.492188,-1.390625,4.726562,0.9866328117492816,-0.0772779195924994,0.1373430725640053,-0.04136861628656747
zero,0,5,-9.233665090909106,-0.7116475454545393,5.6271307272727356,0.9866829846237759,-0.07499508143591489,0.13998338926195825,-0.03495674283376025
zero,0,5,-9.914417727272728,-0.27592318181818143,5.939275818181819,0.9866258132180834,-0.07287136447278644,0.14270539448201575,-0.0296916918188912
zero,0,5,-9.36647745454546,0.2514203636363596,5.669389363636366,0.9865100626412381,-0.06967258081560562,0.1460833690841698,-0.02394092742022258
zero,0,5,-7.782670909090893,1.1068890909090965,5.089488636363632,0.986395187542221,-0.06560427603031734,0.1496489011628671,-0.017968676629914002
zero,0,5,-5.152344,1.992188,4.4375,0.9863812898775512,-0.0633561076318326,0.1509951531455137,-0.0154408008796399
zero,0,5,-3.6598011818181915,2.525923181818179,3.9549003636363667,0.9861431472271872,-0.060046385654247345,0.1542195395003872,-0.0111149783212966
zero,0,5,-3.1665484545454534,3.094459818181821,3.763139272727272,0.9858733662818712,-0.058724421921851996,0.15662448173967386,-0.008383063596317616
zero,0,5,-3.33700309090909,3.7244315454545442,3.686434909090909,0.9855904717391119,-0.05832022616624021,0.15865074723750622,-0.00605314625652134
zero,0,5,-3.462713181818186,3.6189630000000133,3.462713181818186,0.9853320053908363,-0.058290955137105735,0.16033383510420027,-0.0027148172964606416
zero,0,5,-2.8533378181818154,2.1040480909090897,2.9225849999999993,0.9852053092014907,-0.058351789342861116,0.16110429667139706,0.002548298724201053
zero,0,5,-1.9200991818181847,1.7397019090909103,2.612571000000001,0.9856897748889655,-0.05761258403880429,0.15821435184436053,0.007758707422833347
zero,0,5,-0.7737921818181726,1.2162640909090867,2.0269882727272677,0.9859839212047584,-0.057157437287397916,0.15639016714286408,0.010407785385986437
zero,0,5,-0.22301127272727234,0.8348721818181813,1.6328119999999995,0.9862168683867215,-0.056819555462505916,0.15488331509649716,0.01251841163049984
zero,0,5,-0.05717345454545489,0.6466620909090912,1.4254260000000005,0.9864134207350024,-0.05654187427597954,0.1535616104708958,0.014446803398168263
zero,0,5,-0.015625090909091352,0.6718750000000018,1.305398181818181,0.9865800473636266,-0.056335410825693155,0.15238982938212195,0.016208659435576745
zero,0,5,-0.085938,0.953125,1.167969,0.9867193287187536,-0.056293676425657,0.1513355071051638,0.0177074169917305
zero,0,6,-1.3125,-8.984375,-12.238281,1.0,0.0,0.0,0.0
zero,0,6,-3.632812909090909,-8.636008727272726,-13.142755636363637,0.9997494991878222,0.019146534001658427,0.005959511461048255,0.0027824679943489637
zero,0,6,-4.148438,-8.558594,-13.34375,0.9991030536668379,0.03840439944809742,0.0111504440742242,0.007004886466058556
zero,0,6,-5.259943454545454,-8.244318545454545,-13.349076818181818,0.9981143905388316,0.056931008199165335,0.015061945255239382,0.012689458865092637
zero,0,6,-6.8196022727272725,-7.76811109090909,-13.359730363636363,0.9968183033481995,0.07445523993233669,0.0174531890647875,0.019957526917041248
zero,0,6,-7.486860818181818,-7.466974181818181,-13.423650818181818,0.9952024607575086,0.09127461803816798,0.01829328352577382,0.029132075584943098
zero,0,6,-8.071733181818182,-7.134587818181818,-13.896662181818181,0.9930150009621054,0.10872595871281972,0.017482381453728282,0.041672004400673104
zero,0,6,-8.389559727272728,-6.759587636363636,-14.273082272727272,0.9905313467745175,0.12380770289950847,0.015356758999254018,0.05613556515250892
zero,0,6,-8.859375,-6.379261272727273,-14.496803727272727,0.9876129263597037,0.13749561253698306,0.012299740731582617,0.07326555501359937
zero,0,6,-9.207386272727273,-6.217685,-14.626065181818182,0.9841947585667503,0.1496272586913669,0.008474844876569174,0.0931814035870506
zero,0,6,-9.757457181818182,-7.149858363636363,-14.132812454545455,0.9792137359110784,0.1610629223296529,0.003199006934363483,0.12084614936385586
zero,0,6,-11.953125,-10.953125,-11.566406,0.9700790555473096,0.1744702233633898,-0.005473598355192,0.1687507240547872
zero,0,6,-13.359375,-11.132102272727273,-10.831321181818181,0.964611279975079,0.1779750138545008,-0.008998189866299591,0.19394788824655856
zero,0,6,-15.071378000000001,-10.945667454545454,-9.845170545454545,0.9586458504289721,0.18000811604854597,-0.011728333607137756,0.21957350973194953
zero,0,6,-17.655539909090912,-10.45419009090909,-8.133877727272726,0.952156074257226,0.18067836545492827,-0.013759153530481764,0.24554706647019142
zero,0,6,-20.000355181818183,-9.80965890909091,-6.283380363636363,0.9426231985476243,0.17899961378724838,-0.01585731922483374,0.27987787308022694
zero,0,6,-20.454190545454544,-9.193181818181818,-5.131036454545454,0.9283373953514473,0.1741744806556066,-0.018724116805603666,0.32773726524389657
zero,0,6,-19.655184454545456,-8.681818181818182,-3.4275565454545474,0.9198261197360701,0.1696999716587348,-0.020616501266078533,0.3529959855934817
zero,0,6,-15.847656181818184,-8.071022545454547,-0.03941772727272985,0.9110682193530178,0.16382374068326894,-0.02229685918034839,0.3773728976514939
zero,0,6,-12.957386636363639,-7.490412090909091,4.869673454545451,0.8919575260948467,0.14208597236788056,-0.02008781130363442,0.42646256154329176
zero,0,6,-12.172585636363635,-7.388494545454545,9.365767454545452,0.8752832351065573,0.11999306589683777,-0.015404662281751802,0.46804238658793185
zero,0,6,-12.923650818181818,-7.768820909090909,12.312145000000005,0.8681548385872075,0.10695803021322156,-0.009847176275215133,0.48441170364432184
zero,0,6,-12.667969,-7.835938,14.507812,0.8611985148240037,0.0928654421390279,-0.003603604173453,0.4997000517892848
zero,0,6,-11.95205990909091,-7.772016727272728,16.262429090909087,0.8553239125732645,0.07862859274221476,0.0022393352931992074,0.5119957425690229
zero,0,6,-10.93536909090909,-7.633522545454546,17.80078118181818,0.8502426640677522,0.06395547671724398,0.007821145855339183,0.5223109767644296
zero,0,6,-8.454900181818187,-8.10049727272727,19.90767054545454,0.8438684543461181,0.03766536085469088,0.01720766994557546,0.5343726404346217
zero,0,6,-5.612570909090908,-8.76527,22.004261727272727,0.8380913636283105,0.007733180035553457,0.02763083908211145,0.5446638501612788
zero,0,6,-3.779829818181825,-8.91654809090909,23.020596545454545,0.8362343465683943,-0.015631064203649302,0.035684153963708526,0.5465228362684568
zero,0,6,1.822797818181825,-9.81782690909091,23.627840454545456,0.8367327031614815,-0.075280885036108,0.05784763293256387,0.5388484064448853
zero,0,6,3.5731534545454533,-10.025923181818182,23.45951709090909,0.8387830040143106,-0.09880299742064275,0.06790166008999252,0.5309630135449018
zero,0,6,4.999645272727275,-9.516690363636362,22.420809636363636,0.8416724670608979,-0.1176846490349563,0.07656918020481107,0.5212193672520138
zero,0,6,5.835938,-9.058594,21.628906,0.8452336814317435,-0.13643942227234046,0.08516395390224907,0.5094116048808995
zero,0,6,5.924716363636364,-9.053622363636363,21.20774127272727,0.8493476156535171,-0.15494722300405453,0.09344541432997634,0.4957079835131287
zero,0,6,6.324219,-9.03125,19.3125,0.8538684648502327,-0.1728733752088588,0.1012267379637331,0.4803921194185284
zero,0,6,6.89950309090909,-8.542258727272728,16.896306818181824,0.85866398714672,-0.1900493437849571,0.10849541887150702,0.4633129792084094
zero,0,6,7.072088,-8.199928909090909,14.915128,0.8635446170933353,-0.2069421262129483,0.11572283797372321,0.4447759866795192
zero,0,6,7.205965999999999,-7.659801000000002,13.09907672727273,0.8683583350794051,-0.22352867159309522,0.12302963844407502,0.4249326657233922
zero,0,6,7.420099727272727,-6.625355181818181,10.549715727272725,0.8740936862453639,-0.2442364083858457,0.13304584324332755,0.3971630594340298
zero,0,6,7.604758272727273,-5.075994545454547,6.801846545454547,0.8812688035677858,-0.27170605940816733,0.14748612137211228,0.3573629528848633
zero,0,6,7.246803727272726,-4.248224454545453,5.721590454545454,0.8840481953339514,-0.28444777965178986,0.15513549870434923,0.3367499799147623
zero,0,6,6.721235363636365,-3.5653409090909096,4.970880545454547,0.8876144574938609,-0.30783166420805663,0.1688271067095473,0.2968155143371691
zero,0,6,5.859374909090908,-2.9559656363636355,3.4730113636363606,0.8899879558923289,-0.33039472807578313,0.17980254652464975,0.2562095536466627
zero,0,6,5.398082454545456,-2.6669029090909095,2.3082386363636354,0.8911869021177504,-0.3465886226862394,0.1860463169461471,0.225581472908199
zero,0,6,5.677201545454544,-2.7634939999999997,2.0845170000000004,0.8916992524079256,-0.35593467021889336,0.18834015050028743,0.20643553293473998
zero,0,6,6.105469,-2.929688,1.972656,0.8921228520803745,-0.364472856419375,0.1899164682502285,0.1876381859239741
zero,0,6,7.33274172727273,-3.1821731818181824,0.9659094545454521,0.8923966838565995,-0.37184500344563465,0.19126062223801488,0.1693880631316735
zero,0,6,7.279829636363639,-3.5514915454545437,-0.15269836363635914,0.8930010141935123,-0.3838391597248394,0.19461468839390178,0.12844207666774576
zero,0,6,6.200639090909093,-3.801491727272727,-1.0351560909090898,0.8937326546904109,-0.3906917113962808,0.1964658627062292,0.09965181917186948
zero,0,6,4.781604999999999,-3.954900818181818,-1.5113638181818183,0.894678192052362,-0.39188865806116685,0.19625206864770264,0.08607308974075849
zero,0,6,3.756747363636361,-4.158736000000001,-1.604048272727273,0.8960736110596547,-0.39193896275594625,0.19507305815745007,0.0732408774810655
zero,0,6,2.868252636363639,-4.356888999999999,-1.6967327272727268,0.8980666229861395,-0.3905899246903278,0.19262425862043872,0.061591700060918
zero,0,6,2.0933950000000006,-5.174360545454545,-2.289417181818181,0.9010528755291125,-0.387390742091332,0.18845294142040483,0.04962729813017753
zero,0,6,1.9719460000000004,-5.913707272727273,-2.6825281818181823,0.90452030075865,-0.382941573498596,0.18342979717784397,0.038547889891610544
zero,0,6,2.7013491818181876,-6.460227454545456,-3.004261363636365,0.908325687466953,-0.37736433525462204,0.1779525485826268,0.02851421710941179
zero,0,6,3.979758363636362,-6.928267454545453,-3.3636363636363633,0.9124396606785605,-0.370613183852864,0.17228744057886689,0.019306080922390684
zero,0,6,4.855469,-7.625,-3.59375,0.916936081202924,-0.3624601956575659,0.1665591604560335,0.0104343481006248
zero,0,6,4.497514454545454,-8.254616272727274,-3.309304181818181,0.9211725583066229,-0.3537625278562488,0.16200574080641195,0.0032170435338760737
zero,0,6,3.2645599090909148,-9.02592336363636,-3.3902698181818174,0.931921476818907,-0.32718229246539504,0.15438033549167085,-0.011049674967024846
zero,0,6,2.4900567272727274,-9.399147636363637,-3.5330255454545454,0.9398025411826073,-0.30634112656314183,0.14981923611552078,-0.020339397014124648
zero,0,6,2.3110791818181817,-9.450283727272726,-3.649147909090909,0.9450955258273159,-0.2898146047164436,0.1482760375655514,-0.024513730187049443
zero,0,6,2.13813918181818,-9.52166190909091,-3.8213778181818197,0.9523585703680254,-0.26581012255202674,0.1465445332831727,-0.029261622798221944
zero,0,6,1.5532668181818199,-9.294744090909091,-4.32315318181818,0.9562659078987614,-0.25180684673852255,0.14547797636903148,-0.030957944477191156
zero,0,6,1.1786220909090912,-9.087712818181819,-4.484020181818181,0.9598262605142052,-0.23852526474276434,0.1440635960944841,-0.032074154404637116
zero,0,6,0.8707389090909086,-8.866121909090909,-4.621449090909091,0.9657294256838127,-0.21533811573794467,0.14001872794344225,-0.03267184762350042
zero,0,6,0.5419038181818167,-8.593394818181817,-4.833806818181819,0.971070916714465,-0.19368530443089033,0.13557397169785612,-0.03250527124920352
zero,0,6,0.29154854545454495,-8.246094000000001,-5.111505636363636,0.9748281589496886,-0.1769031262017627,0.13134938572612062,-0.031009812537973316
zero,0,6,0.496094,-7.824219,-5.332031,0.9807176359088496,-0.1485896703320434,0.1239858218467727,-0.027231314124585
zero,0,6,0.3682530909090906,-7.348011818181817,-5.395951454545455,0.9831578521104174,-0.13493083692029723,0.12063184710944896,-0.024396664995736082
zero,0,6,0.17080990909090993,-7.060724454545455,-5.420099181818181,0.9853545908292443,-0.1214294405599051,0.11752733566101081,-0.021149312234862404
zero,0,6,-0.10866463636363584,-6.75639190909091,-5.379616454545455,0.9872535829206133,-0.10852410798741283,0.11478627799471232,-0.017639826079595678
zero,0,6,-0.4335938181818184,-6.3664772727272725,-5.324219,0.9889067601755344,-0.09590940346226078,0.11232649481120968,-0.013797632951206442
zero,0,6,-0.8149860000000029,-5.879616454545452,-5.300071272727273,0.9904077751204237,-0.08298653147168512,0.1099619473875819,-0.009456240249671085
zero,0,6,-1.7162639999999971,-5.077414545454547,-5.082741727272728,0.99170380407364,-0.07000211769758917,0.1075987798445402,-0.004598571224672715
zero,0,6,-2.5578838181818178,-4.1956679090909095,-4.913707454545455,0.9927458674143342,-0.057861287043218475,0.10514169343006302,0.000469812183785623
zero,0,6,-3.0276990909090915,-3.572443272727272,-4.852982818181818,0.9936152088963246,-0.046124260096690656,0.1024781579243011,0.0059214872135806
zero,0,6,-3.1875,-3.300781,-4.847656,0.9943161352871279,-0.03491865887268791,0.09961724207151705,0.011710690960904924
zero,0,6,-3.492897818181815,-2.9818890000000033,-4.591974181818184,0.9948956912150335,-0.022159963826081555,0.09580949533291985,0.019348325839835322
zero,0,6,-4.867188,-1.546875,-3.441406,0.9954788812029984,-0.0022931062159212,0.0891254530664209,0.032759614747643
zero,0,6,-5.4296880000000005,-1.8345174545454552,-2.84694618181818,0.9954988385398164,0.006227194166011247,0.08577681961836593,0.039459134905298045
zero,0,6,-6.069247181818184,-2.5248578181818218,-2.038707636363632,0.9953817847240947,0.014941164451000586,0.08225573733242478,0.04665058332192826
zero,0,6,-6.244317818181819,-2.7602979090909097,-1.4996449090909096,0.9951380171455237,0.023063653257093877,0.07919217342773519,0.0534584325935535
zero,0,6,-5.930042181818186,-2.4897014545454574,-1.272727090909092,0.9947468098828425,0.030739823569307222,0.07693365297030245,0.05986585702301587
zero,0,6,-5.382457181818179,-2.188565090909092,-1.1551846363636362,0.9941829922562561,0.03848221548178285,0.07567511576095895,0.06620078239068819
zero,0,6,-4.570667818181821,-2.4442469090909085,-1.1455963636363635,0.9934764598575819,0.04561623466595835,0.07602265469593755,0.07165339176404431
zero,0,6,-4.528764272727273,-2.3135650909090897,-1.2382815454545464,0.9925626463323861,0.052799685046158125,0.07830498723405838,0.07664998724723102
zero,0,6,-4.708806818181818,-1.606178727272726,-1.1498581818181814,0.9915927378349929,0.059226934560375734,0.08178615047003811,0.08076059196693555
zero,0,6,-5.045454727272725,-0.6345878181818227,-0.8906251818181835,0.9905785783903999,0.0650241882122354,0.08606716704671426,0.08424043451145363
zero,0,6,-5.608665272727278,0.1495030909090917,-0.47656290909090504,0.9895373448721384,0.07035478765869634,0.09063154276655107,0.08741154282436239
zero,0,6,-6.554688,0.277344,0.15625,0.988528920671389,0.0751406235470787,0.0947817141476102,0.0904482523460553
zero,0,6,-6.621804272727273,0.5809663636363617,0.5142045454545432,0.9876521550790811,0.07921067895645074,0.09752676985219881,0.09354018962168968
zero,0,6,-6.338423545454544,0.9591622727272746,0.7727272727272738,0.9864560869022511,0.08486571843695256,0.09913501651508067,0.09922762239592904
zero,0,6,-5.1328126363636395,1.4137076363636356,1.3650568181818168,0.9856292058215967,0.08868463543313101,0.09938142249547992,0.10386513780941355
zero,0,6,-3.6924714545454593,1.621448909090912,2.0053266363636353,0.9850484583971726,0.09101762772382739,0.09843301829301104,0.10812271334873579
zero,0,6,-3.1143461818181803,1.2382808181818166,2.1523435454545456,0.9842732368030319,0.09384090347935527,0.09691897069638945,0.11404337539333688
zero,0,6,-2.6669038181818197,0.7812501818181833,2.2226564545454544,0.9838974133487791,0.09506236126749273,0.09672265120347275,0.11641672742563332
zero,0,6,-1.8643465454545387,0.8384231818181828,2.082741727272726,0.9834840922321826,0.09628363839752459,0.09715004466880048,0.1185264646816663
zero,0,6,-1.5351562727272725,0.9364345454545455,1.935724545454545,0.9828061670852725,0.0982558441741387,0.09883248039142568,0.12109027925749447
zero,0,6,-1.4378554545454552,0.8068182727272746,1.7286931818181832,0.982024016358522,0.10057540153505516,0.10114209439599825,0.12360493618392983
zero,0,6,-1.3593754545454553,0.5216621818181826,1.4914772727272725,0.9813797350828988,0.10252467504143396,0.10312795693704654,0.12548577202542194
zero,0,6,-1.464844,0.636719,1.453125,0.981105415748758,0.1033009976887075,0.1038116427980583,0.1264286750881426
zero,0,7,6.90625,-7.503906,-5.066406,1.0,2.775557561562892e-17,0.0,0.0
zero,0,7,6.295849575757575,-8.117897707070707,-5.587041818181818,0.999619382219009,0.02401795577539632,0.00800659228881808,0.007655650695544275
zero,0,7,5.567550585858585,-8.918560606060606,-5.9897807474747475,0.9985027437812173,0.0485144186821076,0.016739880441537777,0.015469899884127385
zero,0,7,3.2565106060606053,-10.142637121212122,-6.298295515151516,0.9965073151270218,0.07437712174747287,0.026264826174124477,0.023790434593890464
zero,0,7,1.6201074040404038,-10.868962818181819,-6.602351979797979,0.9939020718074287,0.09865113823330929,0.035127564765076065,0.03180288086983708
zero,0,7,0.23137626262626254,-11.181147161616162,-6.953046585858585,0.9905088733570241,0.12302280021804833,0.04371381929631325,0.04030184217979459
zero,0,7,-1.1387310606060612,-11.289654363636364,-7.370738878787879,0.986364818641033,0.1474006740281172,0.05168644342663211,0.04964342617971108
zero,0,7,-3.2821574040404036,-11.138928595959595,-7.8570867070707076,0.9816913921467834,0.17063170193396815,0.0582960883468917,0.059789001597920485
zero,0,7,-7.038746505050506,-10.463620565656564,-8.375789464646465,0.972274023319746,0.20601938603812922,0.06237651221669268,0.08307532619552381
zero,0,7,-10.54225809090909,-9.633877545454546,-8.853693181818182,0.958790750409758,0.24983914029188334,0.06200675917906634,0.11959152223728922
zero,0,7,-10.793284252525252,-9.662208171717172,-9.237847222222221,0.952733000434075,0.263453726111475,0.05652214475068543,0.13988020646920143
zero,0,7,-10.754340444444443,-9.772135222222223,-9.522569444444445,0.7374870632393961,0.2117538391632391,0.040007812902300814,0.12120476303523606
zero,0,7,-10.747987212121213,-9.788589272727272,-9.563920454545453,-0.9405050155020798,-0.28192372355462614,-0.041140056481681064,-0.18507149854515964
zero,0,7,-12.34580197979798,-9.655737545454546,-9.133049242424242,-0.934339343432504,-0.28637034342528384,-0.03255942561511785,-0.20952447463764137
zero,0,7,-13.71287092929293,-9.53306509090909,-8.732717585858586,-0.9281421649546563,-0.2877741763071847,-0.023983139651116647,-0.23465318126284296
zero,0,7,-14.623342606060605,-9.39251893939394,-8.641926636363635,-0.9218843755206529,-0.28631882519938084,-0.015443280848227322,-0.2603043854107537
zero,0,7,-14.496014585858585,-9.27375297979798,-8.309658767676767,-0.9155351126831616,-0.2824924720906711,-0.0070153371071293375,-0.28592270724986546
zero,0,7,-13.53886512121212,-8.841974494949495,-8.102391161616161,-0.9089936695553307,-0.2768453728835373,0.0011154881960855926,-0.3112386116379273
zero,0,7,-12.045454818181817,-7.9620028181818165,-6.893110909090906,-0.8982259546172707,-0.2654507078318497,0.012265306252461892,-0.3489620834706636
zero,0,7,-11.210938,-7.425781,-5.921875,-0.8835969028383593,-0.24881189823131847,0.02387411114739355,-0.3949261097910055
zero,0,7,-11.093987050505051,-7.020951646464646,-4.353535545454545,-0.8710100715570127,-0.2343397874959226,0.030688635198263103,-0.4304772271953168
zero,0,7,-9.843276666666661,-6.081084303030302,0.4865053333333451,-0.8598506487337897,-0.22245662377981193,0.031199680586845524,-0.4578838042313857
zero,0,7,-7.485243333333333,-5.256944000000001,6.225694555555554,-0.8451014492947578,-0.20710713566517,0.027124619565573382,-0.49201129757289214
zero,0,7,-7.9873732727272735,-4.826901686868687,8.102194242424243,-0.8369522345525362,-0.19831181892162728,0.020639798025120563,-0.5095863778510901
zero,0,7,-9.191406,-5.554688,11.046875,-0.8284954228951212,-0.18862664840988203,0.012428584886010978,-0.5270997095601855
zero,0,7,-9.191406,-5.554688,11.046875,-0.8213011111320535,-0.17937842267625712,0.005249776917741041,-0.5415265520882521
zero,0,7,-8.295927555555554,-7.233270252525253,13.301373555555557,0.6417341638160373,0.11753927928580513,0.009449761224468157,0.45960996738562854
zero,0,7,-8.236860909090908,-8.243252636363636,14.027698545454545,0.8016693671174937,0.13660208130429827,0.015639067624527297,0.5816738025119697
zero,0,7,-5.267795020202021,-10.960503222222222,16.67329532323232,0.7978756013362925,0.11979161153890039,0.022028295790998253,0.5903098561549043
zero,0,7,-2.555358020202018,-11.129774383838383,18.83226782828283,0.7952571003646751,0.10085219865263594,0.029632374893705047,0.5969794282339416
zero,0,7,-0.6635889090909115,-10.228811515151516,20.318181999999997,0.7940790200380656,0.08070021942272808,0.03879079554779832,0.601057887884518
zero,0,7,0.09375,-9.847656,20.929688,0.7943889103575101,0.06122456635088319,0.04904900261792798,0.6022083662577329
zero,0,7,-0.5905540808080827,-10.318418414141416,21.602667797979798,0.7960248079055112,0.04182900753462954,0.06062839204356852,0.6006248434617744
zero,0,7,-1.558594,-10.984375,22.554688,0.7987822555786457,0.02118066206777093,0.07348792166379985,0.596591691307311
zero,0,7,-1.366240717171717,-10.795967424242424,22.58132133333333,0.8024096819566845,4.594235785977674e-06,0.08631999753231558,0.5903735397339216
zero,0,7,-0.10933558585859471,-10.114188555555558,22.239583212121218,0.807718653270225,-0.024861909265823268,0.10045709114381235,0.5799897734608166
zero,0,7,3.2631390000000016,-9.56178981818182,20.101207818181813,0.8176649207913615,-0.06522547589706144,0.12257676034098128,0.5586195867877909
zero,0,7,3.836845262626263,-10.015901696969697,18.989504171717172,0.8239913549263669,-0.08740991223088876,0.13459192269896805,0.5433887617440624
zero,0,7,4.985835161616159,-9.330098121212123,17.6789377979798,0.8305917354205845,-0.10921770080150578,0.14653134241395735,0.5259680297981334
zero,0,7,5.206794757575758,-9.30054496969697,16.72964015151515,0.8372911857524525,-0.1306490779149871,0.15824672523551844,0.5066330964063144
zero,0,7,5.368410535353536,-9.214725494949494,15.798453282828282,0.8438206536631111,-0.1510636799033328,0.1696750528378706,0.4859443437894897
zero,0,7,5.410156,-9.1875,15.5625,0.8503556417810374,-0.17128485887557166,0.18146522723070563,0.46296131120996836
zero,0,7,5.74869781818182,-8.444129090909087,13.102746060606048,0.8603959949860303,-0.20282183982973573,0.20095803040906213,0.4205244059997741
zero,0,7,6.065183212121212,-7.6552242222222215,10.57650701010101,0.8681563903562629,-0.22796283743081083,0.21674240545347148,0.3834748802105681
zero,0,7,5.667968888888891,-6.812934000000002,7.194878333333342,0.875909979983243,-0.258332101918899,0.23382783884021036,0.32933470080508703
zero,0,7,4.829545454545452,-5.913707545454544,3.2528409999999934,0.8845099728480725,-0.2967413394049469,0.25147041125508857,0.2553576416452119
zero,0,7,4.408617424242424,-5.440025323232323,1.6925902121212113,0.8885041560374547,-0.31936190711827434,0.2563945790115783,0.20638110307072183
zero,0,7,4.375,-5.089844,1.121094,0.8903904530640014,-0.3314633630593259,0.25608948248380453,0.17770357855309896
zero,0,7,4.536931878787883,-5.039654545454544,1.0396546060606038,0.8920512249310328,-0.3424032206732554,0.25397838518174165,0.1496413228858895
zero,0,7,5.8121059191919215,-4.680042373737374,0.41560158585858487,0.8935529552482319,-0.35187937987006107,0.2504201429071734,0.12248189184589882
zero,0,7,8.113676080808077,-4.776988626262626,-0.3491945858585849,0.8948472874587109,-0.3591743901502339,0.2463908775847322,0.09747650304256639
zero,0,7,9.254972060606057,-4.8430393333333335,-0.45490072727272696,0.8960011622117635,-0.36466990689039336,0.2424854688369192,0.0729169442034183
zero,0,7,7.939630383838382,-5.00430091919192,-0.03468261616161544,0.8965933275016541,-0.37007063655471806,0.2411946560759869,0.016372875708279812
zero,0,7,6.410511222222224,-5.191445777777778,0.4328048585858581,0.8962683852514257,-0.37045807604937175,0.24352722571013316,-0.009664591250661436
zero,0,7,4.615766727272734,-5.272372,0.45241454545454607,0.8958726145677993,-0.36857570894188396,0.2467612377930566,-0.02470898118749637
zero,0,7,2.2977431111111066,-5.8537326666666685,0.3676214444444444,0.8959855386126893,-0.36548483941520943,0.24917404966363177,-0.03854887160370648
zero,0,7,1.054688,-6.308594,0.355469,0.8985644498206077,-0.35671477250550765,0.24822363836149833,-0.05872547641734063
zero,0,7,1.0392995454545457,-6.839488787878784,1.5151515420086525e-07,0.9029623829862754,-0.3447814371000198,0.24386007517327415,-0.07897869189710899
zero,0,7,1.6027462121212155,-8.021977666666668,-0.9382891414141437,0.9073873614882689,-0.3342811851534753,0.23792128512905283,-0.09060949902976376
zero,0,7,3.2155144040404036,-9.032946787878787,-1.872198606060606,0.9149385101220284,-0.3148958306479055,0.22832731619705632,-0.10492499835488475
zero,0,7,4.17128275757576,-9.843986606060604,-2.1352985454545452,0.9287963185747258,-0.2753674662050281,0.21332738784954072,-0.12584188431696897
zero,0,7,3.4542695050505032,-10.546362505050507,-2.193576585858585,0.9368149263811324,-0.2458613383664986,0.20989585320668397,-0.13360779821149674
zero,0,7,2.7074260707070708,-10.84438107070707,-1.917100202020202,0.9406674370863657,-0.22940744424583273,0.20975555018239728,-0.136074078083016
zero,0,7,2.347656272727274,-11.074928727272727,-1.7649147272727277,0.9442115538361954,-0.21322427000609956,0.20993733385178723,-0.137474515329251
zero,0,7,1.4000951111111086,-11.003827292929293,-2.4165092525252545,0.9477561005037308,-0.19612528526032327,0.21008279924266385,-0.1382261443164756
zero,0,7,0.7788034141414142,-11.034011808080809,-3.126972606060606,0.9510872386533206,-0.17936385604265356,0.20994482165599693,-0.1382765846822192
zero,0,7,0.4010413333333342,-11.037760333333333,-3.6874999999999987,0.9543183334997393,-0.16275839156664726,0.20924340941757724,-0.1375788210874555
zero,0,7,0.04943931313131214,-10.582702020202019,-4.5370500000000025,0.9617532544310814,-0.12288802694572498,0.2037875071037522,-0.13238771692966025
zero,0,7,0.17282159595959606,-10.038746717171717,-5.205097858585859,0.967845476145261,-0.08903206273115286,0.1980173789302959,-0.1266034261811941
zero,0,7,0.23165221212121329,-9.498224181818184,-5.479640545454545,0.9706877176192715,-0.07127033727365675,0.1941241914247866,-0.12206928595875828
zero,0,7,-0.12922207070706998,-8.882615050505054,-5.581794585858586,0.9731989115621861,-0.05393783380327043,0.19026054421959632,-0.1169747244997747
zero,0,7,-0.363636232323229,-8.355823797979802,-5.565380181818182,0.9753969807230627,-0.03689425005288076,0.1865020849175164,-0.11126754649183135
zero,0,7,-0.8892041818181865,-7.641690090909084,-5.59019890909091,0.9772496686974534,-0.020416136697357066,0.18295662651557204,-0.10507033523373528
zero,0,7,-1.6585782424242435,-6.568773424242422,-5.7436476363636375,0.9787692388039672,-0.004583801030291483,0.1796052839108364,-0.09845911395305625
zero,0,7,-2.0001583232323235,-5.8824571414141404,-6.008207070707071,0.9800911805833644,0.011993276567986575,0.17615876414519585,-0.09076782877357349
zero,0,7,-2.3628080303030297,-5.333096575757577,-6.381628787878787,0.9809716854039615,0.026834057188546374,0.17333119551101253,-0.08313497858224334
zero,0,7,-2.386719,-5.296875,-6.40625,0.9816025660206922,0.0423801220078905,0.170576665602174,-0.07427196738948463
zero,0,7,-4.458767222222205,-3.8081593333333457,-6.667535111111109,0.9819590373640019,0.07858100938378443,0.16377392970385113,-0.04726272581493919
zero,0,7,-5.941051060606068,-3.148674090909089,-6.263021333333329,0.9820332286820643,0.0961765984883711,0.15909359552174135,-0.03142557798658314
zero,0,7,-8.039417767676776,-2.8687654747474736,-5.120817434343429,0.9820222035080248,0.10561255426104096,0.15495763807336463,-0.020059652357075915
zero,0,7,-9.826941404040404,-2.8477347979797982,-4.03716806060606,0.9819234447957312,0.11416545544381795,0.15051622453551972,-0.008293381042722325
zero,0,7,-10.779829545454545,-3.3199573636363624,-3.1949570000000014,0.9813805147559896,0.12499821344229026,0.14482075560657465,0.00889523963543437
zero,0,7,-9.644807636363652,-3.79004898989899,-2.4690653131313156,0.9804707375648841,0.13505357959203776,0.14040517200219715,0.026255896965127222
zero,0,7,-7.085938,-3.785156,-2.070312,0.9795343226231479,0.1396599974640472,0.1404872368433689,0.03539304934243824
zero,0,7,-7.31380242424243,-2.772608757575729,-1.3403167878787672,0.9779575118192654,0.14334306314979825,0.1448907770031261,0.04451407983015138
zero,0,7,-8.018071121212119,1.0647093131313152,1.3854563737373742,0.9750723301929727,0.1470670863566428,0.15589486398459312,0.057433486573644055
zero,0,7,-6.902343737373732,1.6312732121212137,1.4814554141414142,0.974356970645961,0.14761584958513455,0.1581650887654531,0.0618100822564918
zero,0,7,-3.7031247575757607,2.740767272727272,1.4994081515151514,0.9737616168280583,0.1481946934584209,0.15938390069288427,0.06650246021356576
zero,0,7,-2.1740453333333383,3.1870657777777764,1.5624995555555552,0.9732611584756835,0.1486651462144031,0.16009237958979775,0.07091855584508337
zero,0,7,-1.0554370303030365,3.301412313131313,1.7218271515151504,0.9727081408483673,0.14912558121358888,0.1611059921282979,0.07511197237547369
zero,0,7,-0.41441718181817805,3.0607245454545433,2.010653454545457,0.972040251668867,0.14972881094089563,0.16271058944427835,0.07899345508208078
zero,0,7,-0.2729638383838385,2.068379191919186,2.4514284343434367,0.9712442442402655,0.15050353748631967,0.164982438663544,0.08251611259744274
zero,0,7,-0.3917295151515155,1.4610165555555552,2.709122616161616,0.9703379096890188,0.15146139798114935,0.16780532788530816,0.08566972179937586
zero,0,7,-0.8875472121212118,0.931700060606061,2.657552212121212,0.9683145407392714,0.15389621571110737,0.17428833089144943,0.09087077921589855
zero,0,7,-1.3478929393939392,0.4332783434343436,2.521622474747475,0.9662627012875507,0.15642823936858674,0.18084292883359446,0.09570190417416342
zero,0,7,-1.3752364040404041,0.3602039292929297,2.466698393939394,0.965445305153135,0.1574073033518179,0.18340369460027717,0.09746294833760352
zero,0,7,-1.2760416666666643,0.3160513939393943,2.3349907878787852,0.9647387763508579,0.15819223905351779,0.18557623465875575,0.09906730086563346
zero,0,7,-1.0162562727272728,0.3692389292929298,2.0119156565656557,0.9640646974255077,0.15885114456824706,0.18752478803866227,0.10088316777793782
zero,0,7,-1.007851727272727,0.4565187676767676,1.8673061212121211,0.963194942547132,0.15945471204517891,0.18997975476276027,0.10362018979842932
zero,0,7,-0.875,0.40625,1.824219,0.9628614477934032,0.1593923004131976,0.1910288257068096,0.1048804780274089
zero,0,8,1.71875,-4.730469,-11.261719,1.0,1.734723475976807e-18,0.0,0.0
zero,0,8,1.265980303030303,-5.221709151515151,-11.098958393939395,0.9999458719794506,0.004832492633145228,0.0009505697931118181,0.007599516729639546
zero,0,8,-0.18087109090909093,-5.745146787878788,-10.914062242424242,0.9998040093678499,0.009646807113216764,0.002159759786087779,0.01585687597129235
zero,0,8,-1.5639204545454546,-6.019531363636363,-10.875354818181817,0.9995592588737162,0.014432804835091965,0.0036464155680041915,0.024855634401213484
zero,0,8,-2.008996212121212,-5.827651272727272,-11.111505939393938,0.9991663076739157,0.019277188495170922,0.005526010935695455,0.03513634331589967
zero,0,8,-2.6245265151515156,-5.718158090909091,-11.262429424242425,0.9978448495607571,0.026366027556213954,0.010190303968384318,0.05775927756356891
zero,0,8,-5.253551000000002,-5.421164909090909,-11.483664727272727,0.9967541515966439,0.029486865670884165,0.013367291937998039,0.0732076258890187
zero,0,8,-7.898555848484848,-4.983783242424242,-11.581912606060605,0.9956074181677087,0.03065546959354451,0.015846304939572096,0.08657695906970139
zero,0,8,-9.570786484848485,-4.5079306363636364,-11.047940606060607,0.9937669280935736,0.030683150045269652,0.01752651645360662,0.10424933168217965
zero,0,8,-13.287642545454545,-4.753551090909091,-5.83664818181818,0.9864628643676633,0.024647577378159046,0.012083240928158136,0.15914015511265042
zero,0,8,-14.139204757575758,-5.529948060606062,-3.094815696969696,0.9815874624071667,0.018185721198105145,0.004536664203308937,0.18938239261750894
zero,0,8,-13.480468666666665,-7.243489666666669,0.06770800000000388,0.3285219507863105,0.008800608443495556,0.004234441643795138,0.057838792398066746
zero,0,8,-12.25035490909091,-9.621448636363636,4.378550727272729,-0.9723368747631834,-0.001137219374022178,0.014020462134721447,-0.23293621790069022
zero,0,8,-12.481179151515152,-9.689512272727272,5.90554012121212,-0.9667474846332319,0.010899022478522041,0.023973755917335894,-0.2540555471350403
zero,0,8,-12.681226424242423,-9.222537727272728,6.788588909090908,-0.9610575663473895,0.024479786231747798,0.03194750806627649,-0.272930254542807
zero,0,8,-12.78125,-8.910156,7.164062,-0.952059151894308,0.048021845600396115,0.03915949260560341,-0.2979541338959103
zero,0,8,-12.587594727272727,-9.16299696969697,8.167849878787878,-0.940563641687993,0.07912717410332985,0.045138174716748546,-0.3270430979620994
zero,0,8,-11.377249272727273,-10.74325303030303,14.441524121212122,-0.9346325122567172,0.09548091382607775,0.04615991159923696,-0.3393087696732146
zero,0,8,-10.572087999999999,-10.53125009090909,16.67578090909091,-0.9287712198301039,0.11250634614904209,0.04726888820415874,-0.34974001231781193
zero,0,8,-8.203716606060603,-9.985558909090908,18.810014151515155,-0.9200855901137431,0.14082209895298164,0.04813767814599175,-0.36131809001899867
zero,0,8,-4.9064866060606045,-9.519768454545455,21.18513278787879,-0.90878729954096,0.1807379094284168,0.04750093814221359,-0.3724094175311531
zero,0,8,-3.950639636363637,-9.345170727272727,22.052201727272728,-0.8975158039782413,0.22583901262067158,0.04179027682888709,-0.3760291284710115
zero,0,8,-3.0624999999999987,-9.376302333333333,21.976562666666666,-0.8915396456598694,0.2509568541509855,0.03772817680077609,-0.374890006039974
zero,0,8,-2.675781,-9.402344,21.886719,-0.8861043843864131,0.2743439114812575,0.03387702497790265,-0.3716591119144665
zero,0,8,-2.062144636363631,-9.653054181818183,21.719105363636363,-0.880519924057062,0.2986513466767799,0.030011875226323082,-0.3666157676538848
zero,0,8,0.49467354545453945,-10.697679939393938,21.020715212121214,-0.8749138289682882,0.32339963249849374,0.02613687276876931,-0.35942292097835066
zero,0,8,2.087712969696967,-10.634232606060605,20.300544757575757,-0.8697467714591629,0.3464632618339688,0.022189256079779365,-0.3503877524896774
zero,0,8,4.443891909090905,-10.367897454545455,19.22336672727273,-0.8646245746991058,0.36940241132728835,0.017605181423857016,-0.33962673104002106
zero,0,8,6.546875,-10.125,18.277344,-0.8594728956082169,0.39232216914228063,0.012193878738797279,-0.32712301744770517
zero,0,8,6.546875,-10.125,18.277344,-0.8542339472639391,0.4151543277394944,0.005735664583277882,-0.31282206874144475
zero,0,8,7.470170272727271,-9.607954181818181,16.26313890909091,-0.8443627234701657,0.4543955841767533,-0.008859376203336922,-0.28194020236988315
zero,0,8,8.117542484848485,-8.226562363636365,12.96425175757576,-0.8373632941913964,0.48063745740532793,-0.019311322091006562,-0.2590505183903629
zero,0,8,8.399621212121213,-6.964844,9.763612818181818,-0.8320195651486683,0.4988166172769615,-0.027206776695939655,-0.24071370444408335
zero,0,8,8.28125,-6.964844,8.207031,-0.8265307981951351,0.5162180864968064,-0.0350272325540564,-0.2216727763801695
zero,0,8,8.227983333333334,-6.594933393939394,6.759943121212121,-0.8209277942145764,0.5321177264639083,-0.04257788467386451,-0.20220010119598258
zero,0,8,8.216974545454546,-5.375828484848484,4.876183454545453,-0.8150792024336335,0.5473402559053112,-0.04997719072302147,-0.18236537261637709
zero,0,8,8.120383272727272,-4.2865768181818185,3.3174710909090903,-0.8089909289750243,0.5618799148675339,-0.05717234399195489,-0.16221892299709942
zero,0,8,7.832741242424242,-4.1408615151515145,2.709398181818181,-0.8026896103746246,0.5756932807081049,-0.06408646406892693,-0.14188145237285413
zero,0,8,7.459872303030303,-4.049124393939393,2.2803027272727268,-0.7965706088223953,0.5876161015188525,-0.06992751446862239,-0.12299011106895252
zero,0,8,7.355469,-4.023438,2.160156,-0.7901925944282443,0.5991142527236013,-0.07521412823165897,-0.10369374381055523
zero,0,8,7.190932939393939,-3.79143012121212,1.9695784242424235,-0.7837164909876387,0.6100505788986565,-0.07969978709964648,-0.08408485313491677
zero,0,8,6.954782181818186,-3.290245757575758,1.5284090909090908,-0.7769051791130613,0.6207821946451946,-0.08322193602037624,-0.06282194285591526
zero,0,8,8.733309454545452,-3.6956677272727263,1.4928977272727273,-0.7661934618179264,0.6360022969524259,-0.0857608467163191,-0.02521178697424095
zero,0,8,10.448863818181824,-3.491595606060605,1.0075757575757558,-0.757583191092393,0.6463542843953743,-0.08654508755671082,0.012219521525226075
zero,0,8,11.246094,-3.2044269999999995,0.4713539999999987,-0.7519531634105453,0.6521261180926492,-0.08697039310755117,0.04033118970092631
zero,0,8,10.831320818181815,-3.0791905454545456,0.08380636363636314,-0.7493436860278314,0.6538865674265044,-0.08770235241003253,0.05649300493691074
zero,0,8,9.913944303030298,-3.120620090909091,-0.06415727272727327,-0.7472630463554746,0.6546301717005236,-0.08886151007206934,0.0714787458436265
zero,0,8,8.215317484848477,-3.083925393939394,-0.13873121212121237,-0.745777176125785,0.6545374963720438,-0.09003762726089053,0.08495611255440595
zero,0,8,5.07705990909089,-3.4467330909090945,-0.16938936363636364,-0.7448839707356982,0.6536136010440153,-0.09082715855788005,0.0980662646740276
zero,0,8,0.951112909090899,-4.390387757575765,-0.20643936363636461,-0.7447493671829395,0.6516567293989671,-0.09092108066538783,0.11129481099128029
zero,0,8,-1.2831439090908991,-6.0002362424242355,-0.4224666363636354,-0.7460723298022042,0.6478152107771956,-0.08958587611505557,0.12508874027345912
zero,0,8,-0.852628000000004,-6.943892181818178,-0.9193892727272704,-0.7531607877906883,0.6346543398212415,-0.08419960923122166,0.14983512402482602
zero,0,8,1.7950991818181647,-8.788589515151504,-1.9637783636363577,-0.7627796023399975,0.6174474607291425,-0.07947250609290034,0.17381287212223023
zero,0,8,4.701112515151523,-11.034683151515152,-3.229758060606059,-0.7726139007644907,0.6000652373295742,-0.07691330485517368,0.19243845038405888
zero,0,8,2.3277700909090986,-11.09090890909091,-3.5582383636363626,-0.7780221335819473,0.5903664738908648,-0.07774277706777807,0.20019621376248095
zero,0,8,1.1653643333333363,-11.194010666666667,-3.6158853333333334,-0.7835651122913971,0.5804089351759286,-0.0793844877850812,0.20683607217911124
zero,0,8,0.32054884848485055,-11.356534484848485,-3.628314181818182,-0.7891020880593475,0.5704472243345005,-0.08132276241620838,0.21266320769919056
zero,0,8,-0.33771318181818066,-11.54012809090909,-3.6278405454545455,-0.7946972485118183,0.5603528566404401,-0.08338940545144667,0.2178580689596056
zero,0,8,-0.7845639393939384,-11.658499303030302,-3.6071261515151516,-0.8005373137116425,0.5497609908066678,-0.08540025009249742,0.22269357118308475
zero,0,8,-1.144294181818181,-11.303148575757577,-3.7797114242424237,-0.8062555778965487,0.539279488986463,-0.08700025226739279,0.2269379167826591
zero,0,8,-1.214133272727273,-11.045099181818182,-4.047230363636363,-0.8121276786533822,0.528433179350127,-0.08824418203939974,0.23096374161888683
zero,0,8,-1.089133272727273,-10.89678,-4.350260666666666,-0.8180124916984132,0.5174888543429377,-0.08913136337170971,0.23467366840929887
zero,0,8,-0.9470878181818183,-10.793205,-4.610677333333333,-0.8236481169739014,0.5069343264167708,-0.08965035780945403,0.237857770235377
zero,0,8,-0.941406,-10.789062,-4.621094,-0.8298858368671223,0.49520719826233517,-0.08977346519160875,0.24069858216693393
zero,0,8,-0.8126181212121213,-9.815577393939394,-4.785866848484848,-0.8430880685039707,0.47017115487981576,-0.08872019107420336,0.2442850159755144
zero,0,8,-0.6653642727272727,-8.666666727272727,-4.939157636363636,-0.8566183881196588,0.4444379264555351,-0.08713632193879746,0.24705053751288245
zero,0,8,-0.632812,-8.308594,-4.871094,-0.8625511138811086,0.4330730915631495,-0.0858113648702445,0.2471632718781257
zero,0,8,-0.5558710909090909,-7.565814454545454,-4.800071272727273,-0.8684303855271265,0.42175080922579894,-0.08444325034837981,0.24651864590659683
zero,0,8,-0.4990530303030303,-7.052438575757575,-4.628432757575758,-0.8740011712625652,0.4109401743639453,-0.08313665493070377,0.24551104880066868
zero,0,8,-0.45063927272727267,-6.715198909090909,-4.429687454545454,-0.8795419641642025,0.4001210710627488,-0.08186408139803804,0.24402894397214925
zero,0,8,-0.40577675757575765,-6.502248575757576,-4.274384969696969,-0.8852692285266738,0.3888890188077298,-0.08061349228584767,0.24198705152418987
zero,0,8,-0.49159569696969707,-6.36316296969697,-4.298059212121212,-0.890557589006386,0.37838059046329947,-0.07967413594951206,0.23946802802798145
zero,0,8,-0.8011360909090915,-5.923650818181818,-4.4517049090909095,-0.89604323215842,0.3673639584145558,-0.07890995441966131,0.2363273604285878
zero,0,8,-1.0343274545454544,-5.469105212121212,-4.603811727272728,-0.9014871879066179,0.3563231915480895,-0.07828529059081234,0.2327388718815136
zero,0,8,-1.0286463030303032,-5.157078363636362,-4.674005666666667,-0.9067208768427324,0.3455966435315467,-0.077766243461995,0.22881957472266778
zero,0,8,-1.0937500909090911,-4.727982909090908,-4.700639,-0.9115790430828866,0.33549073804507284,-0.0772302390347637,0.2246506940170703
zero,0,8,-1.3027932727272735,-4.328124999999999,-4.812736636363637,-0.9202924573528993,0.317095336822774,-0.07514505022371905,0.21584235867914636
zero,0,8,-2.123697666666671,-3.5286459999999957,-4.769531333333332,-0.9279237914890456,0.3008949646526988,-0.07260375578189815,0.20757015354253494
zero,0,8,-3.480469,-2.367188,-4.527344,-0.9326094403781466,0.2908485196721042,-0.070008600808274,0.20179611962376937
zero,0,8,-3.480469,-2.367188,-4.527344,-0.9371556483368652,0.2810117383020593,-0.0667094373574315,0.1956639440160652
zero,0,8,-3.298177484848484,-1.8794983030303007,-3.949692484848482,-0.9415265382809215,0.27149435659797494,-0.06294419319429748,0.18917588748163097
zero,0,8,-3.122869818181818,-1.5951705454545457,-3.3384233636363616,-0.9457165370041488,0.2623138643856983,-0.05903966052286454,0.18237664561802208
zero,0,8,-3.03811593939394,-1.6883288484848495,-2.816406090909088,-0.949701063928036,0.253511716872471,-0.05517362887377493,0.1752943516118046
zero,0,8,-3.1298530606060604,-1.9132341515151505,-2.1328129090909123,-0.9533864024217534,0.24523396644463397,-0.05163922247014837,0.1679898822238786
zero,0,8,-3.6814628181818154,-2.2624289090909078,-0.7283380909090977,-0.9566215778295674,0.23781820226410555,-0.0489322719712339,0.1608575372853936
zero,0,8,-3.988281,-2.441406,0.011719,-0.9597149176158964,0.23050979397245835,-0.04686521335812975,0.1535082415094746
zero,0,8,-4.048058424242426,-2.428385242424242,0.11588566666666963,-0.962679528931193,0.22325444171178263,-0.04546939060897415,0.14599396519182192
zero,0,8,-4.3469455454545445,-2.363281454545455,0.6367189999999983,-0.96533632890435,0.21642115468668202,-0.04497778059329741,0.13874187051099382
zero,0,8,-5.018229333333338,-2.1263023333333315,1.3320316666666714,-0.9709791958634355,0.19966593921960832,-0.04653876557161201,0.12206420212323076
zero,0,8,-5.435369393939394,-1.962002878787879,1.6219228484848487,-0.9744722454589646,0.18881352638914092,-0.047630408726320274,0.11164087186948289
zero,0,8,-5.6647723636363665,-1.8341617272727255,1.610085636363637,-0.9758763716014717,0.1838979303527658,-0.048018936884979706,0.10739226451200554
zero,0,8,-6.058357212121211,-1.5826230909090915,1.7107007878787877,-0.9770276536913401,0.17972915045426813,-0.0480451175378472,0.10393759488966209
zero,0,8,-6.95288833333334,-1.001656848484844,2.598129909090916,-0.9780054534808026,0.17610608176173426,-0.047520461444961984,0.10112278919322154
zero,0,8,-7.198508636363637,-0.23046836363636514,3.4012785454545442,-0.979290097225683,0.17131874300925462,-0.04564512981813134,0.09763581395270182
zero,0,8,-6.888849575757572,0.45454575757575905,3.925307818181819,-0.9805282753759664,0.1666823093512125,-0.043288691394003626,0.09436506963913198
zero,0,8,-6.338423060606061,0.6409806060606058,3.9933714545454544,-0.9810950916438377,0.16451115715022221,-0.04192845266794985,0.09289802179851123
zero,0,8,-4.69424745454544,0.8444605454545472,3.422229999999995,-0.9815564927513634,0.16270672451719465,-0.04117333408702893,0.0915211214144365
zero,0,8,-3.2526046666666675,1.2797110606060602,2.5422586363636372,-0.9820064103771812,0.16087818923291713,-0.04154654410134611,0.08973133751548441
zero,0,8,-2.443892484848487,1.5845167878787856,1.7507106060606037,-0.9823384049344895,0.159501144778571,-0.04259003559210847,0.08806818814271994
zero,0,8,-2.683594,1.335938,1.484375,-0.9824282891513249,0.1591305928916338,-0.0437393077660496,0.0871721517303832
zero,0,9,-10.222656,-6.664062,-8.195312,1.0,-8.673617379884035e-19,-6.884683795282953e-18,0.0
zero,0,9,-10.222656,-6.664062,-8.195312,0.999069669438567,0.006333787002878182,-0.0015277585949830565,0.03619242559267317
zero,0,9,-11.588067818181818,-6.696022454545455,-7.543678818181818,0.9970420748173372,0.010464098621443318,-0.002350625592991473,0.07203863516469411
zero,0,9,-13.343749636363636,-6.776278454545454,-6.542969,0.9945014494399337,0.0126352328133803,-0.002585382388395291,0.10344470309343023
zero,0,9,-13.812500181818182,-6.943892272727273,-5.667969,0.9923968071016428,0.0128950904171963,-0.0023246134505396543,0.12215353492948602
zero,0,9,-13.460937272727271,-6.825639454545454,-4.497159181818182,0.9872542083869227,0.010791887384915683,0.00045871892654124466,0.15682630377312223
zero,0,9,-13.151278,-6.724787090909091,-2.815341000000001,0.9828017300268905,0.008143968316444265,0.0036007515238939713,0.1840511197158325
zero,0,9,-13.107599181818182,-6.598721636363637,-0.6505683636363639,0.979392675618564,0.005112795189054673,0.006880925895626581,0.20163487679575656
zero,0,9,-13.812144636363637,-5.888494727272727,1.6136367272727277,0.9754187900129325,0.000848795266476853,0.011139754585340838,0.21983082915023933
zero,0,9,-14.373934272727274,-5.267756181818181,2.870028363636364,-0.08535863639657859,0.004021722489247584,-0.004602554652319285,-0.033366880950290695
zero,0,9,-14.826349,-5.035866909090909,3.8469457272727268,-0.9667855274082248,0.009963961175704479,-0.020370584537965662,-0.2543196298249011
zero,0,9,-15.175781,-5.402344,4.917969,-0.9621817811990556,0.0163900927764447,-0.0250697388772701,-0.2707565197368616
zero,0,9,-15.175781,-5.402344,4.917969,-0.9570827923515793,0.023907150501883166,-0.029938176902838315,-0.2870288465397333
zero,0,9,-14.783380545454545,-5.814275818181819,6.375710363636365,-0.9517470085151083,0.03209236660040065,-0.03477251388645659,-0.30292569218947346
zero,0,9,-14.263494363636363,-6.26527,8.4375,-0.9461884432180655,0.04102218553257603,-0.03957483329003809,-0.3183907889231862
zero,0,9,-14.067471818181819,-6.0919740000000004,9.687499999999998,-0.9403877645194988,0.050983127894182925,-0.04434248182901925,-0.33323650498445356
zero,0,9,-13.620383454545454,-6.127485454545455,11.558948545454546,-0.9344224251457529,0.06220910246276412,-0.048889431098928196,-0.34703253054532146
zero,0,9,-12.957031090909092,-6.370383272727272,13.164062,-0.9284617921261814,0.0740469939717931,-0.053209518776925646,-0.35985119752714323
zero,0,9,-11.812855090909087,-6.854403181818182,14.711647272727276,-0.9217751559089332,0.08825592576578835,-0.05790298230784555,-0.37279211663370876
zero,0,9,-8.565695818181817,-7.783380636363637,18.342329454545457,-0.9098088921535473,0.11604375317838686,-0.06657740868353071,-0.3923806201664032
zero,0,9,-6.903763818181819,-8.239346454545455,19.814630545454545,-0.9023997067044229,0.13452677982238817,-0.07268440408168207,-0.40265384338077553
zero,0,9,-5.816050909090908,-8.471590727272728,20.425781,-0.894665720744922,0.15600222775738595,-0.08107526790388432,-0.4100632279671378
zero,0,9,-4.804688,-8.59375,20.800781,-0.8838586904313148,0.1876343782710428,-0.094698929642579,-0.4178747039058841
zero,0,9,-4.0546880000000005,-8.630681636363636,21.29225809090909,-0.8793405943040346,0.20262246934911776,-0.10277915946368088,-0.4183589735408448
zero,0,9,-2.843039818181821,-8.886008272727272,22.573863363636363,-0.8748466544952235,0.2183534924723406,-0.1118341907609294,-0.4174699867246418
zero,0,9,-1.5056814545454524,-9.300070818181819,23.995028454545455,-0.87053188905799,0.23429005240322334,-0.12151795840806967,-0.4152292825607092
zero,0,9,-0.6221592727272716,-9.79723009090909,24.412642272727272,-0.8667111653622447,0.2495059450758193,-0.13133329244782108,-0.4114052879656824
zero,0,9,0.01278400000000024,-10.01846590909091,24.641335636363635,-0.8631653354442865,0.26517538306800575,-0.14175169033446441,-0.40540683004417627
zero,0,9,0.4701705454545453,-10.154829545454545,24.794744727272725,-0.8597129392826,0.28132903223236533,-0.152579932143024,-0.39781005479842985
zero,0,9,0.8085939999999994,-10.267045454545455,24.761008727272728,-0.8563483981557951,0.2978456069388625,-0.16368405544888595,-0.3886961936481585
zero,0,9,1.308593999999999,-10.52840909090909,23.755326545454547,-0.85321969975705,0.3139667275547009,-0.17445350562934245,-0.37797648910941517
zero,0,9,1.5614349090909094,-10.610795454545455,22.88813909090909,-0.8501925080641903,0.33005785575327035,-0.18475216845253647,-0.3658596748158662
zero,0,9,1.5720881818181816,-10.770951636363638,21.337357818181815,-0.8472189604161622,0.346233988396053,-0.19457363803166144,-0.3525158697966262
zero,0,9,1.316406,-11.160156,18.570312,-0.8442784268951389,0.3625684575665628,-0.2038613340691506,-0.3379032523205709
zero,0,9,1.4612925454545453,-11.074929090909091,17.243608000000002,-0.8413940734065355,0.3785589579244381,-0.21196819212440143,-0.32186725589427917
zero,0,9,1.7215909090909085,-10.959517181818182,15.899147636363638,-0.8383760470185239,0.39490159268609687,-0.2197114296178004,-0.3042777050202443
zero,0,9,2.0291192727272733,-10.867187545454545,14.62713018181818,-0.8352309803232888,0.4113848975203931,-0.22702016792495944,-0.285321014376316
zero,0,9,2.270596363636364,-10.898437727272727,13.604402909090908,-0.8319454039253186,0.42765637064579126,-0.23367992568473195,-0.26505930242864567
zero,0,9,3.1583809090909094,-10.37286909090909,11.651988454545453,-0.8288548017114918,0.44151987223579126,-0.23906740940306026,-0.24629287091802798
zero,0,9,3.8501423636363636,-9.860085090909092,10.001420454545455,-0.8254986529328769,0.45521770486673846,-0.24429328044535534,-0.22662413951669957
zero,0,9,4.2368608181818175,-9.44211690909091,8.829900545454546,-0.8217873801459781,0.46901073560472106,-0.2495118782674242,-0.20574737147889005
zero,0,9,4.5067473636363635,-9.041548181818182,7.969104909090911,-0.8176440394387509,0.4822218642699232,-0.2545385782386978,-0.18422572665774054
zero,0,9,4.672230090909091,-8.760298181818182,7.3149858181818175,-0.8133110668043673,0.49452406851451747,-0.25910451675807955,-0.1629064814417491
